File: 1st-Semester-Fall-2021/FEC1/LDPE Tensile Strength Tests/Team 3 LDPE 60 3.csv
Cycle,Test Point,Time (ms),Distance (mm),Up (N),Down (N),Force Data (N),Date / Time
1,1,0,0.000,,,0.000,1980/01/25 05:57:25.546
1,8,188,-0.150,0.100,,-0.100,1980/01/25 05:57:25.734
1,15,297,-0.280,0.200,,-0.200,1980/01/25 05:57:25.843
1,22,438,-0.410,0.300,,-0.300,1980/01/25 05:57:25.984
1,29,547,-0.530,0.400,,-0.400,1980/01/25 05:57:26.093
1,36,672,-0.640,0.500,,-0.500,1980/01/25 05:57:26.218
1,43,782,-0.750,0.500,,-0.500,1980/01/25 05:57:26.328
1,50,891,-0.870,0.700,,-0.700,1980/01/25 05:57:26.437
1,57,1000,-0.980,0.800,,-0.800,1980/01/25 05:57:26.546
1,64,1125,-1.110,1.000,,-1.000,1980/01/25 05:57:26.671
1,71,1250,-1.230,1.100,,-1.100,1980/01/25 05:57:26.796
1,78,1375,-1.350,1.200,,-1.200,1980/01/25 05:57:26.921
1,85,1485,-1.470,1.400,,-1.400,1980/01/25 05:57:27.031
1,92,1641,-1.620,1.500,,-1.500,1980/01/25 05:57:27.187
1,99,1782,-1.750,1.600,,-1.600,1980/01/25 05:57:27.328
1,106,1891,-1.870,1.700,,-1.700,1980/01/25 05:57:27.437
1,113,2047,-2.030,1.900,,-1.900,1980/01/25 05:57:27.593
1,120,2157,-2.130,2.000,,-2.000,1980/01/25 05:57:27.703
1,127,2282,-2.270,2.100,,-2.100,1980/01/25 05:57:27.828
1,134,2422,-2.400,2.200,,-2.200,1980/01/25 05:57:27.968
1,141,2547,-2.530,2.300,,-2.300,1980/01/25 05:57:28.093
1,148,2672,-2.660,2.400,,-2.400,1980/01/25 05:57:28.218
1,155,2782,-2.760,2.500,,-2.500,1980/01/25 05:57:28.328
1,162,2891,-2.860,2.600,,-2.600,1980/01/25 05:57:28.437
1,169,3000,-2.990,2.600,,-2.600,1980/01/25 05:57:28.546
1,176,3141,-3.120,2.700,,-2.700,1980/01/25 05:57:28.687
1,183,3250,-3.200,2.700,,-2.700,1980/01/25 05:57:28.796
1,190,3360,-3.330,2.800,,-2.800,1980/01/25 05:57:28.906
1,197,3485,-3.450,2.900,,-2.900,1980/01/25 05:57:29.031
1,204,3594,-3.570,3.000,,-3.000,1980/01/25 05:57:29.140
1,211,3704,-3.670,3.000,,-3.000,1980/01/25 05:57:29.250
1,218,3844,-3.800,3.100,,-3.100,1980/01/25 05:57:29.390
1,225,3969,-3.950,3.100,,-3.100,1980/01/25 05:57:29.515
1,232,4110,-4.080,3.200,,-3.200,1980/01/25 05:57:29.656
1,239,4235,-4.200,3.200,,-3.200,1980/01/25 05:57:29.781
1,246,4360,-4.340,3.300,,-3.300,1980/01/25 05:57:29.906
1,253,4469,-4.440,3.300,,-3.300,1980/01/25 05:57:30.015
1,260,4594,-4.570,3.300,,-3.300,1980/01/25 05:57:30.140
1,267,4719,-4.690,3.400,,-3.400,1980/01/25 05:57:30.265
1,274,4844,-4.800,3.400,,-3.400,1980/01/25 05:57:30.390
1,281,4985,-4.950,3.400,,-3.400,1980/01/25 05:57:30.531
1,288,5141,-5.060,3.500,,-3.500,1980/01/25 05:57:30.687
1,295,5266,-5.230,3.500,,-3.500,1980/01/25 05:57:30.812
1,302,5391,-5.360,3.500,,-3.500,1980/01/25 05:57:30.937
1,309,5500,-5.480,3.600,,-3.600,1980/01/25 05:57:31.046
1,316,5625,-5.610,3.600,,-3.600,1980/01/25 05:57:31.171
1,323,5735,-5.720,3.600,,-3.600,1980/01/25 05:57:31.281
1,330,5860,-5.840,3.600,,-3.600,1980/01/25 05:57:31.406
1,337,6000,-5.980,3.600,,-3.600,1980/01/25 05:57:31.546
1,344,6110,-6.080,3.600,,-3.600,1980/01/25 05:57:31.656
1,351,6219,-6.200,3.700,,-3.700,1980/01/25 05:57:31.765
1,358,6329,-6.300,3.700,,-3.700,1980/01/25 05:57:31.875
1,365,6469,-6.440,3.700,,-3.700,1980/01/25 05:57:32.015
1,372,6610,-6.590,3.700,,-3.700,1980/01/25 05:57:32.156
1,379,6750,-6.710,3.700,,-3.700,1980/01/25 05:57:32.296
1,386,6860,-6.830,3.700,,-3.700,1980/01/25 05:57:32.406
1,393,6969,-6.930,3.700,,-3.700,1980/01/25 05:57:32.515
1,400,7110,-7.080,3.800,,-3.800,1980/01/25 05:57:32.656
1,407,7219,-7.180,3.700,,-3.700,1980/01/25 05:57:32.765
1,414,7329,-7.300,3.800,,-3.800,1980/01/25 05:57:32.875
1,421,7438,-7.410,3.800,,-3.800,1980/01/25 05:57:32.984
1,428,7563,-7.540,3.800,,-3.800,1980/01/25 05:57:33.109
1,435,7672,-7.650,3.800,,-3.800,1980/01/25 05:57:33.218
1,442,7797,-7.760,3.800,,-3.800,1980/01/25 05:57:33.343
1,449,7922,-7.900,3.800,,-3.800,1980/01/25 05:57:33.468
1,456,8032,-8.010,3.800,,-3.800,1980/01/25 05:57:33.578
1,463,8157,-8.120,3.800,,-3.800,1980/01/25 05:57:33.703
1,470,8266,-8.240,3.800,,-3.800,1980/01/25 05:57:33.812
1,477,8375,-8.320,3.800,,-3.800,1980/01/25 05:57:33.921
1,484,8485,-8.460,3.800,,-3.800,1980/01/25 05:57:34.031
1,491,8672,-8.630,3.900,,-3.900,1980/01/25 05:57:34.218
1,498,8813,-8.790,3.900,,-3.900,1980/01/25 05:57:34.359
1,505,8938,-8.910,3.900,,-3.900,1980/01/25 05:57:34.484
1,512,9094,-9.050,3.900,,-3.900,1980/01/25 05:57:34.640
1,519,9219,-9.200,3.900,,-3.900,1980/01/25 05:57:34.765
1,526,9329,-9.300,3.900,,-3.900,1980/01/25 05:57:34.875
1,533,9438,-9.420,3.900,,-3.900,1980/01/25 05:57:34.984
1,540,9594,-9.550,3.900,,-3.900,1980/01/25 05:57:35.140
1,547,9735,-9.700,3.900,,-3.900,1980/01/25 05:57:35.281
1,554,9844,-9.820,3.900,,-3.900,1980/01/25 05:57:35.390
1,561,9954,-9.930,3.900,,-3.900,1980/01/25 05:57:35.500
1,568,10079,-10.040,3.900,,-3.900,1980/01/25 05:57:35.625
1,575,10204,-10.170,3.900,,-3.900,1980/01/25 05:57:35.750
1,582,10329,-10.290,3.900,,-3.900,1980/01/25 05:57:35.875
1,589,10469,-10.440,3.900,,-3.900,1980/01/25 05:57:36.015
1,596,10579,-10.540,3.900,,-3.900,1980/01/25 05:57:36.125
1,603,10704,-10.660,3.900,,-3.900,1980/01/25 05:57:36.250
1,610,10813,-10.780,3.900,,-3.900,1980/01/25 05:57:36.359
1,617,10954,-10.910,4.000,,-4.000,1980/01/25 05:57:36.500
1,624,11063,-11.030,4.000,,-4.000,1980/01/25 05:57:36.609
1,631,11172,-11.150,3.900,,-3.900,1980/01/25 05:57:36.718
1,638,11297,-11.270,4.000,,-4.000,1980/01/25 05:57:36.843
1,645,11407,-11.380,3.900,,-3.900,1980/01/25 05:57:36.953
1,652,11532,-11.490,4.000,,-4.000,1980/01/25 05:57:37.078
1,659,11641,-11.610,3.900,,-3.900,1980/01/25 05:57:37.187
1,666,11766,-11.730,4.000,,-4.000,1980/01/25 05:57:37.312
1,673,11875,-11.840,4.000,,-4.000,1980/01/25 05:57:37.421
1,680,11985,-11.960,4.000,,-4.000,1980/01/25 05:57:37.531
1,687,12110,-12.070,4.000,,-4.000,1980/01/25 05:57:37.656
1,694,12266,-12.200,4.000,,-4.000,1980/01/25 05:57:37.812
1,701,12375,-12.350,4.000,,-4.000,1980/01/25 05:57:37.921
1,708,12485,-12.460,4.000,,-4.000,1980/01/25 05:57:38.031
1,715,12610,-12.580,4.000,,-4.000,1980/01/25 05:57:38.156
1,722,12719,-12.700,4.000,,-4.000,1980/01/25 05:57:38.265
1,729,12844,-12.790,4.000,,-4.000,1980/01/25 05:57:38.390
1,736,12954,-12.920,4.000,,-4.000,1980/01/25 05:57:38.500
1,743,13094,-13.060,4.000,,-4.000,1980/01/25 05:57:38.640
1,750,13219,-13.190,4.000,,-4.000,1980/01/25 05:57:38.765
1,757,13344,-13.320,4.000,,-4.000,1980/01/25 05:57:38.890
1,764,13469,-13.420,4.000,,-4.000,1980/01/25 05:57:39.015
1,771,13579,-13.550,4.000,,-4.000,1980/01/25 05:57:39.125
1,778,13688,-13.650,4.000,,-4.000,1980/01/25 05:57:39.234
1,785,13813,-13.780,4.000,,-4.000,1980/01/25 05:57:39.359
1,792,13922,-13.890,4.000,,-4.000,1980/01/25 05:57:39.468
1,799,14032,-13.990,4.000,,-4.000,1980/01/25 05:57:39.578
1,806,14157,-14.130,4.000,,-4.000,1980/01/25 05:57:39.703
1,813,14282,-14.240,4.000,,-4.000,1980/01/25 05:57:39.828
1,820,14422,-14.390,4.000,,-4.000,1980/01/25 05:57:39.968
1,827,14547,-14.500,4.000,,-4.000,1980/01/25 05:57:40.093
1,834,14657,-14.630,4.000,,-4.000,1980/01/25 05:57:40.203
1,841,14797,-14.750,4.000,,-4.000,1980/01/25 05:57:40.343
1,848,14907,-14.880,4.100,,-4.100,1980/01/25 05:57:40.453
1,855,15016,-14.980,4.000,,-4.000,1980/01/25 05:57:40.562
1,862,15125,-15.090,4.100,,-4.100,1980/01/25 05:57:40.671
1,869,15235,-15.210,4.100,,-4.100,1980/01/25 05:57:40.781
1,876,15360,-15.320,4.100,,-4.100,1980/01/25 05:57:40.906
1,883,15469,-15.430,4.100,,-4.100,1980/01/25 05:57:41.015
1,890,15657,-15.610,4.100,,-4.100,1980/01/25 05:57:41.203
1,897,15766,-15.730,4.100,,-4.100,1980/01/25 05:57:41.312
1,904,15875,-15.850,4.100,,-4.100,1980/01/25 05:57:41.421
1,911,16000,-15.950,4.100,,-4.100,1980/01/25 05:57:41.546
1,918,16141,-16.110,4.100,,-4.100,1980/01/25 05:57:41.687
1,925,16266,-16.230,4.100,,-4.100,1980/01/25 05:57:41.812
1,932,16391,-16.350,4.100,,-4.100,1980/01/25 05:57:41.937
1,939,16500,-16.470,4.100,,-4.100,1980/01/25 05:57:42.046
1,946,16657,-16.610,4.100,,-4.100,1980/01/25 05:57:42.203
1,953,16766,-16.730,4.100,,-4.100,1980/01/25 05:57:42.312
1,960,16875,-16.850,4.100,,-4.100,1980/01/25 05:57:42.421
1,967,16985,-16.960,4.100,,-4.100,1980/01/25 05:57:42.531
1,974,17094,-17.070,4.100,,-4.100,1980/01/25 05:57:42.640
1,981,17204,-17.160,4.100,,-4.100,1980/01/25 05:57:42.750
1,988,17329,-17.290,4.200,,-4.200,1980/01/25 05:57:42.875
1,995,17454,-17.410,4.100,,-4.100,1980/01/25 05:57:43.000
1,1002,17563,-17.530,4.200,,-4.200,1980/01/25 05:57:43.109
1,1009,17672,-17.640,4.200,,-4.200,1980/01/25 05:57:43.218
1,1016,17782,-17.750,4.200,,-4.200,1980/01/25 05:57:43.328
1,1023,17891,-17.850,4.200,,-4.200,1980/01/25 05:57:43.437
1,1030,18000,-17.970,4.200,,-4.200,1980/01/25 05:57:43.546
1,1037,18141,-18.100,4.200,,-4.200,1980/01/25 05:57:43.687
1,1044,18250,-18.220,4.200,,-4.200,1980/01/25 05:57:43.796
1,1051,18360,-18.330,4.200,,-4.200,1980/01/25 05:57:43.906
1,1058,18469,-18.440,4.200,,-4.200,1980/01/25 05:57:44.015
1,1065,18594,-18.560,4.200,,-4.200,1980/01/25 05:57:44.140
1,1072,18704,-18.660,4.200,,-4.200,1980/01/25 05:57:44.250
1,1079,18813,-18.780,4.200,,-4.200,1980/01/25 05:57:44.359
1,1086,18954,-18.910,4.200,,-4.200,1980/01/25 05:57:44.500
1,1093,19157,-19.120,4.200,,-4.200,1980/01/25 05:57:44.703
1,1100,19282,-19.250,4.300,,-4.300,1980/01/25 05:57:44.828
1,1107,19391,-19.350,4.300,,-4.300,1980/01/25 05:57:44.937
1,1114,19500,-19.470,4.300,,-4.300,1980/01/25 05:57:45.046
1,1121,19610,-19.580,4.300,,-4.300,1980/01/25 05:57:45.156
1,1128,19719,-19.690,4.300,,-4.300,1980/01/25 05:57:45.265
1,1135,19844,-19.790,4.300,,-4.300,1980/01/25 05:57:45.390
1,1142,19969,-19.940,4.300,,-4.300,1980/01/25 05:57:45.515
1,1149,20094,-20.050,4.300,,-4.300,1980/01/25 05:57:45.640
1,1156,20204,-20.160,4.300,,-4.300,1980/01/25 05:57:45.750
1,1163,20313,-20.280,4.300,,-4.300,1980/01/25 05:57:45.859
1,1170,20422,-20.390,4.300,,-4.300,1980/01/25 05:57:45.968
1,1177,20547,-20.510,4.300,,-4.300,1980/01/25 05:57:46.093
1,1184,20672,-20.630,4.300,,-4.300,1980/01/25 05:57:46.218
1,1191,20782,-20.740,4.300,,-4.300,1980/01/25 05:57:46.328
1,1198,20891,-20.850,4.300,,-4.300,1980/01/25 05:57:46.437
1,1205,21016,-20.970,4.400,,-4.400,1980/01/25 05:57:46.562
1,1212,21157,-21.090,4.400,,-4.400,1980/01/25 05:57:46.703
1,1219,21282,-21.240,4.400,,-4.400,1980/01/25 05:57:46.828
1,1226,21391,-21.350,4.400,,-4.400,1980/01/25 05:57:46.937
1,1233,21516,-21.470,4.400,,-4.400,1980/01/25 05:57:47.062
1,1240,21625,-21.580,4.400,,-4.400,1980/01/25 05:57:47.171
1,1247,21750,-21.700,4.400,,-4.400,1980/01/25 05:57:47.296
1,1254,21875,-21.840,4.400,,-4.400,1980/01/25 05:57:47.421
1,1261,21985,-21.950,4.400,,-4.400,1980/01/25 05:57:47.531
1,1268,22094,-22.050,4.400,,-4.400,1980/01/25 05:57:47.640
1,1275,22204,-22.160,4.400,,-4.400,1980/01/25 05:57:47.750
1,1282,22313,-22.270,4.500,,-4.500,1980/01/25 05:57:47.859
1,1289,22516,-22.370,4.400,,-4.400,1980/01/25 05:57:48.062
1,1296,22641,-22.600,4.500,,-4.500,1980/01/25 05:57:48.187
1,1303,22766,-22.720,4.500,,-4.500,1980/01/25 05:57:48.312
1,1310,22875,-22.840,4.500,,-4.500,1980/01/25 05:57:48.421
1,1317,22985,-22.950,4.500,,-4.500,1980/01/25 05:57:48.531
1,1324,23125,-23.090,4.500,,-4.500,1980/01/25 05:57:48.671
1,1331,23235,-23.200,4.500,,-4.500,1980/01/25 05:57:48.781
1,1338,23375,-23.320,4.500,,-4.500,1980/01/25 05:57:48.921
1,1345,23485,-23.450,4.500,,-4.500,1980/01/25 05:57:49.031
1,1352,23594,-23.550,4.500,,-4.500,1980/01/25 05:57:49.140
1,1359,23719,-23.660,4.500,,-4.500,1980/01/25 05:57:49.265
1,1366,23829,-23.790,4.500,,-4.500,1980/01/25 05:57:49.375
1,1373,23954,-23.910,4.500,,-4.500,1980/01/25 05:57:49.500
1,1380,24079,-24.030,4.600,,-4.600,1980/01/25 05:57:49.625
1,1387,24204,-24.160,4.600,,-4.600,1980/01/25 05:57:49.750
1,1394,24329,-24.280,4.600,,-4.600,1980/01/25 05:57:49.875
1,1401,24438,-24.400,4.600,,-4.600,1980/01/25 05:57:49.984
1,1408,24547,-24.510,4.600,,-4.600,1980/01/25 05:57:50.093
1,1415,24657,-24.610,4.600,,-4.600,1980/01/25 05:57:50.203
1,1422,24766,-24.720,4.600,,-4.600,1980/01/25 05:57:50.312
1,1429,24907,-24.850,4.600,,-4.600,1980/01/25 05:57:50.453
1,1436,25016,-24.940,4.600,,-4.600,1980/01/25 05:57:50.562
1,1443,25125,-25.090,4.600,,-4.600,1980/01/25 05:57:50.671
1,1450,25235,-25.180,4.600,,-4.600,1980/01/25 05:57:50.781
1,1457,25344,-25.290,4.600,,-4.600,1980/01/25 05:57:50.890
1,1464,25469,-25.410,4.600,,-4.600,1980/01/25 05:57:51.015
1,1471,25579,-25.530,4.700,,-4.700,1980/01/25 05:57:51.125
1,1478,25704,-25.650,4.700,,-4.700,1980/01/25 05:57:51.250
1,1485,25813,-25.770,4.700,,-4.700,1980/01/25 05:57:51.359
1,1492,26016,-25.970,4.700,,-4.700,1980/01/25 05:57:51.562
1,1499,26125,-26.080,4.700,,-4.700,1980/01/25 05:57:51.671
1,1506,26235,-26.190,4.700,,-4.700,1980/01/25 05:57:51.781
1,1513,26360,-26.320,4.700,,-4.700,1980/01/25 05:57:51.906
1,1520,26500,-26.460,4.800,,-4.800,1980/01/25 05:57:52.046
1,1527,26625,-26.590,4.800,,-4.800,1980/01/25 05:57:52.171
1,1534,26735,-26.700,4.800,,-4.800,1980/01/25 05:57:52.281
1,1541,26860,-26.810,4.800,,-4.800,1980/01/25 05:57:52.406
1,1548,26985,-26.940,4.800,,-4.800,1980/01/25 05:57:52.531
1,1555,27094,-27.050,4.800,,-4.800,1980/01/25 05:57:52.640
1,1562,27219,-27.180,4.800,,-4.800,1980/01/25 05:57:52.765
1,1569,27329,-27.290,4.800,,-4.800,1980/01/25 05:57:52.875
1,1576,27438,-27.400,4.800,,-4.800,1980/01/25 05:57:52.984
1,1583,27579,-27.530,4.800,,-4.800,1980/01/25 05:57:53.125
1,1590,27688,-27.650,4.900,,-4.900,1980/01/25 05:57:53.234
1,1597,27797,-27.760,4.800,,-4.800,1980/01/25 05:57:53.343
1,1604,27907,-27.870,4.900,,-4.900,1980/01/25 05:57:53.453
1,1611,28016,-27.960,4.900,,-4.900,1980/01/25 05:57:53.562
1,1618,28141,-28.080,4.900,,-4.900,1980/01/25 05:57:53.687
1,1625,28266,-28.210,4.900,,-4.900,1980/01/25 05:57:53.812
1,1632,28391,-28.340,4.900,,-4.900,1980/01/25 05:57:53.937
1,1639,28500,-28.440,4.900,,-4.900,1980/01/25 05:57:54.046
1,1646,28625,-28.580,4.900,,-4.900,1980/01/25 05:57:54.171
1,1653,28750,-28.690,4.900,,-4.900,1980/01/25 05:57:54.296
1,1660,28875,-28.830,4.900,,-4.900,1980/01/25 05:57:54.421
1,1667,28985,-28.940,4.900,,-4.900,1980/01/25 05:57:54.531
1,1674,29094,-29.040,4.900,,-4.900,1980/01/25 05:57:54.640
1,1681,29219,-29.180,5.000,,-5.000,1980/01/25 05:57:54.765
1,1688,29407,-29.270,5.000,,-5.000,1980/01/25 05:57:54.953
1,1695,29547,-29.490,5.000,,-5.000,1980/01/25 05:57:55.093
1,1702,29672,-29.620,5.000,,-5.000,1980/01/25 05:57:55.218
1,1709,29797,-29.760,5.000,,-5.000,1980/01/25 05:57:55.343
1,1716,29907,-29.860,5.000,,-5.000,1980/01/25 05:57:55.453
1,1723,30016,-29.970,5.000,,-5.000,1980/01/25 05:57:55.562
1,1730,30157,-30.110,5.100,,-5.100,1980/01/25 05:57:55.703
1,1737,30266,-30.220,5.100,,-5.100,1980/01/25 05:57:55.812
1,1744,30391,-30.350,5.100,,-5.100,1980/01/25 05:57:55.937
1,1751,30500,-30.460,5.100,,-5.100,1980/01/25 05:57:56.046
1,1758,30610,-30.570,5.100,,-5.100,1980/01/25 05:57:56.156
1,1765,30750,-30.680,5.100,,-5.100,1980/01/25 05:57:56.296
1,1772,30860,-30.820,5.100,,-5.100,1980/01/25 05:57:56.406
1,1779,30969,-30.920,5.100,,-5.100,1980/01/25 05:57:56.515
1,1786,31079,-31.030,5.100,,-5.100,1980/01/25 05:57:56.625
1,1793,31188,-31.140,5.100,,-5.100,1980/01/25 05:57:56.734
1,1800,31313,-31.270,5.100,,-5.100,1980/01/25 05:57:56.859
1,1807,31438,-31.400,5.100,,-5.100,1980/01/25 05:57:56.984
1,1814,31547,-31.490,5.200,,-5.200,1980/01/25 05:57:57.093
1,1821,31657,-31.600,5.200,,-5.200,1980/01/25 05:57:57.203
1,1828,31766,-31.710,5.200,,-5.200,1980/01/25 05:57:57.312
1,1835,31875,-31.830,5.200,,-5.200,1980/01/25 05:57:57.421
1,1842,31985,-31.930,5.200,,-5.200,1980/01/25 05:57:57.531
1,1849,32094,-32.030,5.200,,-5.200,1980/01/25 05:57:57.640
1,1856,32204,-32.150,5.200,,-5.200,1980/01/25 05:57:57.750
1,1863,32329,-32.270,5.200,,-5.200,1980/01/25 05:57:57.875
1,1870,32454,-32.400,5.300,,-5.300,1980/01/25 05:57:58.000
1,1877,32563,-32.510,5.300,,-5.300,1980/01/25 05:57:58.109
1,1884,32688,-32.640,5.300,,-5.300,1980/01/25 05:57:58.234
1,1891,32907,-32.840,5.300,,-5.300,1980/01/25 05:57:58.453
1,1898,33032,-32.990,5.300,,-5.300,1980/01/25 05:57:58.578
1,1905,33157,-33.110,5.300,,-5.300,1980/01/25 05:57:58.703
1,1912,33266,-33.210,5.300,,-5.300,1980/01/25 05:57:58.812
1,1919,33391,-33.340,5.300,,-5.300,1980/01/25 05:57:58.937
1,1926,33500,-33.460,5.400,,-5.400,1980/01/25 05:57:59.046
1,1933,33610,-33.570,5.400,,-5.400,1980/01/25 05:57:59.156
1,1940,33735,-33.690,5.400,,-5.400,1980/01/25 05:57:59.281
1,1947,33860,-33.820,5.400,,-5.400,1980/01/25 05:57:59.406
1,1954,33985,-33.940,5.400,,-5.400,1980/01/25 05:57:59.531
1,1961,34094,-34.040,5.400,,-5.400,1980/01/25 05:57:59.640
1,1968,34204,-34.160,5.400,,-5.400,1980/01/25 05:57:59.750
1,1975,34313,-34.270,5.500,,-5.500,1980/01/25 05:57:59.859
1,1982,34422,-34.380,5.400,,-5.400,1980/01/25 05:57:59.968
1,1989,34532,-34.480,5.500,,-5.500,1980/01/25 05:58:00.078
1,1996,34672,-34.620,5.500,,-5.500,1980/01/25 05:58:00.218
1,2003,34782,-34.730,5.500,,-5.500,1980/01/25 05:58:00.328
1,2010,34891,-34.850,5.500,,-5.500,1980/01/25 05:58:00.437
1,2017,35016,-34.960,5.500,,-5.500,1980/01/25 05:58:00.562
1,2024,35125,-35.080,5.500,,-5.500,1980/01/25 05:58:00.671
1,2031,35266,-35.200,5.500,,-5.500,1980/01/25 05:58:00.812
1,2038,35375,-35.320,5.500,,-5.500,1980/01/25 05:58:00.921
1,2045,35500,-35.450,5.500,,-5.500,1980/01/25 05:58:01.046
1,2052,35610,-35.560,5.600,,-5.600,1980/01/25 05:58:01.156
1,2059,35719,-35.660,5.600,,-5.600,1980/01/25 05:58:01.265
1,2066,35844,-35.780,5.500,,-5.500,1980/01/25 05:58:01.390
1,2073,35954,-35.900,5.600,,-5.600,1980/01/25 05:58:01.500
1,2080,36079,-36.030,5.600,,-5.600,1980/01/25 05:58:01.625
1,2087,36188,-36.140,5.600,,-5.600,1980/01/25 05:58:01.734
1,2094,36422,-36.360,5.600,,-5.600,1980/01/25 05:58:01.968
1,2101,36563,-36.510,5.600,,-5.600,1980/01/25 05:58:02.109
1,2108,36688,-36.640,5.700,,-5.700,1980/01/25 05:58:02.234
1,2115,36813,-36.750,5.700,,-5.700,1980/01/25 05:58:02.359
1,2122,36922,-36.880,5.700,,-5.700,1980/01/25 05:58:02.468
1,2129,37079,-37.020,5.700,,-5.700,1980/01/25 05:58:02.625
1,2136,37204,-37.150,5.700,,-5.700,1980/01/25 05:58:02.750
1,2143,37313,-37.260,5.700,,-5.700,1980/01/25 05:58:02.859
1,2150,37422,-37.370,5.700,,-5.700,1980/01/25 05:58:02.968
1,2157,37547,-37.490,5.700,,-5.700,1980/01/25 05:58:03.093
1,2164,37657,-37.600,5.700,,-5.700,1980/01/25 05:58:03.203
1,2171,37766,-37.710,5.700,,-5.700,1980/01/25 05:58:03.312
1,2178,37907,-37.850,5.700,,-5.700,1980/01/25 05:58:03.453
1,2185,38032,-37.980,5.800,,-5.800,1980/01/25 05:58:03.578
1,2192,38141,-38.090,5.800,,-5.800,1980/01/25 05:58:03.687
1,2199,38266,-38.220,5.800,,-5.800,1980/01/25 05:58:03.812
1,2206,38375,-38.330,5.800,,-5.800,1980/01/25 05:58:03.921
1,2213,38516,-38.470,5.800,,-5.800,1980/01/25 05:58:04.062
1,2220,38641,-38.580,5.800,,-5.800,1980/01/25 05:58:04.187
1,2227,38766,-38.700,5.800,,-5.800,1980/01/25 05:58:04.312
1,2234,38875,-38.820,5.800,,-5.800,1980/01/25 05:58:04.421
1,2241,38985,-38.920,5.800,,-5.800,1980/01/25 05:58:04.531
1,2248,39141,-39.070,5.900,,-5.900,1980/01/25 05:58:04.687
1,2255,39266,-39.200,5.900,,-5.900,1980/01/25 05:58:04.812
1,2262,39391,-39.330,5.900,,-5.900,1980/01/25 05:58:04.937
1,2269,39516,-39.460,5.900,,-5.900,1980/01/25 05:58:05.062
1,2276,39625,-39.570,5.900,,-5.900,1980/01/25 05:58:05.171
1,2283,39750,-39.700,5.900,,-5.900,1980/01/25 05:58:05.296
1,2290,39969,-39.910,5.900,,-5.900,1980/01/25 05:58:05.515
1,2297,40079,-40.020,5.900,,-5.900,1980/01/25 05:58:05.625
1,2304,40204,-40.150,5.900,,-5.900,1980/01/25 05:58:05.750
1,2311,40313,-40.270,5.900,,-5.900,1980/01/25 05:58:05.859
1,2318,40454,-40.400,5.900,,-5.900,1980/01/25 05:58:06.000
1,2325,40579,-40.520,6.000,,-6.000,1980/01/25 05:58:06.125
1,2332,40688,-40.630,6.000,,-6.000,1980/01/25 05:58:06.234
1,2339,40797,-40.740,6.000,,-6.000,1980/01/25 05:58:06.343
1,2346,40907,-40.860,6.000,,-6.000,1980/01/25 05:58:06.453
1,2353,41032,-40.950,6.000,,-6.000,1980/01/25 05:58:06.578
1,2360,41141,-41.090,6.000,,-6.000,1980/01/25 05:58:06.687
1,2367,41250,-41.200,6.000,,-6.000,1980/01/25 05:58:06.796
1,2374,41360,-41.310,6.000,,-6.000,1980/01/25 05:58:06.906
1,2381,41485,-41.440,6.000,,-6.000,1980/01/25 05:58:07.031
1,2388,41610,-41.560,6.000,,-6.000,1980/01/25 05:58:07.156
1,2395,41735,-41.690,6.000,,-6.000,1980/01/25 05:58:07.281
1,2402,41844,-41.800,6.000,,-6.000,1980/01/25 05:58:07.390
1,2409,41985,-41.930,6.000,,-6.000,1980/01/25 05:58:07.531
1,2416,42094,-42.040,6.000,,-6.000,1980/01/25 05:58:07.640
1,2423,42204,-42.140,6.100,,-6.100,1980/01/25 05:58:07.750
1,2430,42313,-42.240,6.100,,-6.100,1980/01/25 05:58:07.859
1,2437,42422,-42.370,6.100,,-6.100,1980/01/25 05:58:07.968
1,2444,42532,-42.470,6.100,,-6.100,1980/01/25 05:58:08.078
1,2451,42641,-42.580,6.100,,-6.100,1980/01/25 05:58:08.187
1,2458,42766,-42.700,6.100,,-6.100,1980/01/25 05:58:08.312
1,2465,42875,-42.820,6.100,,-6.100,1980/01/25 05:58:08.421
1,2472,43000,-42.950,6.100,,-6.100,1980/01/25 05:58:08.546
1,2479,43110,-43.060,6.100,,-6.100,1980/01/25 05:58:08.656
1,2486,43219,-43.150,6.100,,-6.100,1980/01/25 05:58:08.765
1,2493,43438,-43.380,6.100,,-6.100,1980/01/25 05:58:08.984
1,2500,43579,-43.510,6.100,,-6.100,1980/01/25 05:58:09.125
1,2507,43719,-43.650,6.200,,-6.200,1980/01/25 05:58:09.265
1,2514,43829,-43.770,6.100,,-6.100,1980/01/25 05:58:09.375
1,2521,43954,-43.890,6.200,,-6.200,1980/01/25 05:58:09.500
1,2528,44063,-44.000,6.200,,-6.200,1980/01/25 05:58:09.609
1,2535,44172,-44.120,6.200,,-6.200,1980/01/25 05:58:09.718
1,2542,44313,-44.260,6.200,,-6.200,1980/01/25 05:58:09.859
1,2549,44422,-44.360,6.200,,-6.200,1980/01/25 05:58:09.968
1,2556,44532,-44.470,6.200,,-6.200,1980/01/25 05:58:10.078
1,2563,44641,-44.580,6.200,,-6.200,1980/01/25 05:58:10.187
1,2570,44750,-44.700,6.200,,-6.200,1980/01/25 05:58:10.296
1,2577,44875,-44.810,6.200,,-6.200,1980/01/25 05:58:10.421
1,2584,44985,-44.940,6.200,,-6.200,1980/01/25 05:58:10.531
1,2591,45094,-45.030,6.200,,-6.200,1980/01/25 05:58:10.640
1,2598,45219,-45.160,6.200,,-6.200,1980/01/25 05:58:10.765
1,2605,45329,-45.280,6.200,,-6.200,1980/01/25 05:58:10.875
1,2612,45438,-45.390,6.200,,-6.200,1980/01/25 05:58:10.984
1,2619,45563,-45.510,6.300,,-6.300,1980/01/25 05:58:11.109
1,2626,45688,-45.640,6.300,,-6.300,1980/01/25 05:58:11.234
1,2633,45813,-45.740,6.300,,-6.300,1980/01/25 05:58:11.359
1,2640,45922,-45.870,6.300,,-6.300,1980/01/25 05:58:11.468
1,2647,46032,-45.970,6.300,,-6.300,1980/01/25 05:58:11.578
1,2654,46157,-46.080,6.300,,-6.300,1980/01/25 05:58:11.703
1,2661,46266,-46.210,6.300,,-6.300,1980/01/25 05:58:11.812
1,2668,46375,-46.320,6.300,,-6.300,1980/01/25 05:58:11.921
1,2675,46485,-46.430,6.300,,-6.300,1980/01/25 05:58:12.031
1,2682,46610,-46.540,6.300,,-6.300,1980/01/25 05:58:12.156
1,2689,46844,-46.660,6.300,,-6.300,1980/01/25 05:58:12.390
1,2696,46954,-46.890,6.400,,-6.400,1980/01/25 05:58:12.500
1,2703,47079,-47.010,6.300,,-6.300,1980/01/25 05:58:12.625
1,2710,47204,-47.140,6.300,,-6.300,1980/01/25 05:58:12.750
1,2717,47313,-47.250,6.400,,-6.400,1980/01/25 05:58:12.859
1,2724,47438,-47.370,6.400,,-6.400,1980/01/25 05:58:12.984
1,2731,47563,-47.510,6.400,,-6.400,1980/01/25 05:58:13.109
1,2738,47672,-47.620,6.400,,-6.400,1980/01/25 05:58:13.218
1,2745,47782,-47.720,6.400,,-6.400,1980/01/25 05:58:13.328
1,2752,47891,-47.830,6.400,,-6.400,1980/01/25 05:58:13.437
1,2759,48016,-47.950,6.400,,-6.400,1980/01/25 05:58:13.562
1,2766,48141,-48.070,6.400,,-6.400,1980/01/25 05:58:13.687
1,2773,48250,-48.190,6.400,,-6.400,1980/01/25 05:58:13.796
1,2780,48375,-48.330,6.400,,-6.400,1980/01/25 05:58:13.921
1,2787,48485,-48.420,6.400,,-6.400,1980/01/25 05:58:14.031
1,2794,48625,-48.580,6.400,,-6.400,1980/01/25 05:58:14.171
1,2801,48750,-48.670,6.400,,-6.400,1980/01/25 05:58:14.296
1,2808,48875,-48.820,6.400,,-6.400,1980/01/25 05:58:14.421
1,2815,48985,-48.930,6.400,,-6.400,1980/01/25 05:58:14.531
1,2822,49094,-49.030,6.400,,-6.400,1980/01/25 05:58:14.640
1,2829,49204,-49.130,6.400,,-6.400,1980/01/25 05:58:14.750
1,2836,49313,-49.250,6.500,,-6.500,1980/01/25 05:58:14.859
1,2843,49422,-49.360,6.400,,-6.400,1980/01/25 05:58:14.968
1,2850,49532,-49.460,6.400,,-6.400,1980/01/25 05:58:15.078
1,2857,49657,-49.590,6.400,,-6.400,1980/01/25 05:58:15.203
1,2864,49766,-49.700,6.400,,-6.400,1980/01/25 05:58:15.312
1,2871,49875,-49.810,6.400,,-6.400,1980/01/25 05:58:15.421
1,2878,49985,-49.930,6.500,,-6.500,1980/01/25 05:58:15.531
1,2885,50110,-50.040,6.500,,-6.500,1980/01/25 05:58:15.656
1,2892,50375,-50.310,6.500,,-6.500,1980/01/25 05:58:15.921
1,2899,50485,-50.430,6.500,,-6.500,1980/01/25 05:58:16.031
1,2906,50594,-50.540,6.500,,-6.500,1980/01/25 05:58:16.140
1,2913,50735,-50.650,6.400,,-6.400,1980/01/25 05:58:16.281
1,2920,50860,-50.800,6.500,,-6.500,1980/01/25 05:58:16.406
1,2927,50969,-50.910,6.500,,-6.500,1980/01/25 05:58:16.515
1,2934,51079,-51.010,6.400,,-6.400,1980/01/25 05:58:16.625
1,2941,51188,-51.130,6.500,,-6.500,1980/01/25 05:58:16.734
1,2948,51297,-51.240,6.400,,-6.400,1980/01/25 05:58:16.843
1,2955,51422,-51.360,6.400,,-6.400,1980/01/25 05:58:16.968
1,2962,51532,-51.460,6.500,,-6.500,1980/01/25 05:58:17.078
1,2969,51641,-51.580,6.400,,-6.400,1980/01/25 05:58:17.187
1,2976,51766,-51.710,6.500,,-6.500,1980/01/25 05:58:17.312
1,2983,51875,-51.820,6.500,,-6.500,1980/01/25 05:58:17.421
1,2990,52000,-51.930,6.500,,-6.500,1980/01/25 05:58:17.546
1,2997,52110,-52.040,6.500,,-6.500,1980/01/25 05:58:17.656
1,3004,52219,-52.170,6.400,,-6.400,1980/01/25 05:58:17.765
1,3011,52360,-52.290,6.500,,-6.500,1980/01/25 05:58:17.906
1,3018,52485,-52.430,6.500,,-6.500,1980/01/25 05:58:18.031
1,3025,52594,-52.520,6.500,,-6.500,1980/01/25 05:58:18.140
1,3032,52719,-52.670,6.500,,-6.500,1980/01/25 05:58:18.265
1,3039,52829,-52.760,6.500,,-6.500,1980/01/25 05:58:18.375
1,3046,52938,-52.870,6.500,,-6.500,1980/01/25 05:58:18.484
1,3053,53079,-53.000,6.500,,-6.500,1980/01/25 05:58:18.625
1,3060,53188,-53.120,6.500,,-6.500,1980/01/25 05:58:18.734
1,3067,53313,-53.220,6.500,,-6.500,1980/01/25 05:58:18.859
1,3074,53438,-53.360,6.500,,-6.500,1980/01/25 05:58:18.984
1,3081,53547,-53.490,6.500,,-6.500,1980/01/25 05:58:19.093
1,3088,53782,-53.590,6.500,,-6.500,1980/01/25 05:58:19.328
1,3095,53938,-53.860,6.500,,-6.500,1980/01/25 05:58:19.484
1,3102,54063,-54.000,6.500,,-6.500,1980/01/25 05:58:19.609
1,3109,54172,-54.110,6.500,,-6.500,1980/01/25 05:58:19.718
1,3116,54282,-54.210,6.500,,-6.500,1980/01/25 05:58:19.828
1,3123,54407,-54.330,6.500,,-6.500,1980/01/25 05:58:19.953
1,3130,54547,-54.470,6.600,,-6.600,1980/01/25 05:58:20.093
1,3137,54704,-54.630,6.500,,-6.500,1980/01/25 05:58:20.250
1,3144,54829,-54.760,6.500,,-6.500,1980/01/25 05:58:20.375
1,3151,54954,-54.880,6.600,,-6.600,1980/01/25 05:58:20.500
1,3158,55063,-55.000,6.500,,-6.500,1980/01/25 05:58:20.609
1,3165,55172,-55.100,6.600,,-6.600,1980/01/25 05:58:20.718
1,3172,55297,-55.240,6.600,,-6.600,1980/01/25 05:58:20.843
1,3179,55407,-55.340,6.600,,-6.600,1980/01/25 05:58:20.953
1,3186,55516,-55.450,6.600,,-6.600,1980/01/25 05:58:21.062
1,3193,55625,-55.550,6.600,,-6.600,1980/01/25 05:58:21.171
1,3200,55735,-55.680,6.600,,-6.600,1980/01/25 05:58:21.281
1,3207,55844,-55.780,6.600,,-6.600,1980/01/25 05:58:21.390
1,3214,55985,-55.930,6.600,,-6.600,1980/01/25 05:58:21.531
1,3221,56125,-56.050,6.600,,-6.600,1980/01/25 05:58:21.671
1,3228,56235,-56.180,6.500,,-6.500,1980/01/25 05:58:21.781
1,3235,56344,-56.280,6.600,,-6.600,1980/01/25 05:58:21.890
1,3242,56454,-56.380,6.600,,-6.600,1980/01/25 05:58:22.000
1,3249,56579,-56.500,6.600,,-6.600,1980/01/25 05:58:22.125
1,3256,56688,-56.620,6.600,,-6.600,1980/01/25 05:58:22.234
1,3263,56813,-56.750,6.600,,-6.600,1980/01/25 05:58:22.359
1,3270,56922,-56.850,6.600,,-6.600,1980/01/25 05:58:22.468
1,3277,57047,-56.980,6.600,,-6.600,1980/01/25 05:58:22.593
1,3284,57188,-57.100,6.600,,-6.600,1980/01/25 05:58:22.734
1,3291,57454,-57.380,6.600,,-6.600,1980/01/25 05:58:23.000
1,3298,57563,-57.490,6.600,,-6.600,1980/01/25 05:58:23.109
1,3305,57688,-57.620,6.600,,-6.600,1980/01/25 05:58:23.234
1,3312,57813,-57.730,6.600,,-6.600,1980/01/25 05:58:23.359
1,3319,57954,-57.880,6.600,,-6.600,1980/01/25 05:58:23.500
1,3326,58063,-57.990,6.600,,-6.600,1980/01/25 05:58:23.609
1,3333,58172,-58.110,6.600,,-6.600,1980/01/25 05:58:23.718
1,3340,58282,-58.220,6.600,,-6.600,1980/01/25 05:58:23.828
1,3347,58391,-58.320,6.600,,-6.600,1980/01/25 05:58:23.937
1,3354,58532,-58.440,6.600,,-6.600,1980/01/25 05:58:24.078
1,3361,58641,-58.570,6.600,,-6.600,1980/01/25 05:58:24.187
1,3368,58750,-58.680,6.600,,-6.600,1980/01/25 05:58:24.296
1,3375,58875,-58.800,6.600,,-6.600,1980/01/25 05:58:24.421
1,3382,58985,-58.930,6.600,,-6.600,1980/01/25 05:58:24.531
1,3389,59125,-59.050,6.600,,-6.600,1980/01/25 05:58:24.671
1,3396,59266,-59.200,6.600,,-6.600,1980/01/25 05:58:24.812
1,3403,59391,-59.320,6.700,,-6.700,1980/01/25 05:58:24.937
1,3410,59516,-59.450,6.600,,-6.600,1980/01/25 05:58:25.062
1,3417,59625,-59.560,6.600,,-6.600,1980/01/25 05:58:25.171
1,3424,59750,-59.680,6.600,,-6.600,1980/01/25 05:58:25.296
1,3431,59875,-59.800,6.600,,-6.600,1980/01/25 05:58:25.421
1,3438,59985,-59.920,6.600,,-6.600,1980/01/25 05:58:25.531
1,3445,60110,-60.030,6.600,,-6.600,1980/01/25 05:58:25.656
1,3452,60219,-60.140,6.600,,-6.600,1980/01/25 05:58:25.765
1,3459,60329,-60.260,6.600,,-6.600,1980/01/25 05:58:25.875
1,3466,60454,-60.350,6.600,,-6.600,1980/01/25 05:58:26.000
1,3473,60563,-60.490,6.600,,-6.600,1980/01/25 05:58:26.109
1,3480,60672,-60.610,6.600,,-6.600,1980/01/25 05:58:26.218
1,3487,60782,-60.710,6.600,,-6.600,1980/01/25 05:58:26.328
1,3494,61032,-60.950,6.600,,-6.600,1980/01/25 05:58:26.578
1,3501,61157,-61.060,6.600,,-6.600,1980/01/25 05:58:26.703
1,3508,61266,-61.190,6.600,,-6.600,1980/01/25 05:58:26.812
1,3515,61375,-61.310,6.600,,-6.600,1980/01/25 05:58:26.921
1,3522,61485,-61.410,6.600,,-6.600,1980/01/25 05:58:27.031
1,3529,61594,-61.530,6.600,,-6.600,1980/01/25 05:58:27.140
1,3536,61719,-61.650,6.600,,-6.600,1980/01/25 05:58:27.265
1,3543,61844,-61.780,6.600,,-6.600,1980/01/25 05:58:27.390
1,3550,61954,-61.880,6.600,,-6.600,1980/01/25 05:58:27.500
1,3557,62079,-62.000,6.600,,-6.600,1980/01/25 05:58:27.625
1,3564,62188,-62.110,6.600,,-6.600,1980/01/25 05:58:27.734
1,3571,62297,-62.230,6.700,,-6.700,1980/01/25 05:58:27.843
1,3578,62422,-62.330,6.600,,-6.600,1980/01/25 05:58:27.968
1,3585,62547,-62.480,6.600,,-6.600,1980/01/25 05:58:28.093
1,3592,62657,-62.580,6.600,,-6.600,1980/01/25 05:58:28.203
1,3599,62766,-62.700,6.600,,-6.600,1980/01/25 05:58:28.312
1,3606,62875,-62.810,6.600,,-6.600,1980/01/25 05:58:28.421
1,3613,62985,-62.920,6.600,,-6.600,1980/01/25 05:58:28.531
1,3620,63110,-63.040,6.600,,-6.600,1980/01/25 05:58:28.656
1,3627,63235,-63.160,6.600,,-6.600,1980/01/25 05:58:28.781
1,3634,63360,-63.280,6.600,,-6.600,1980/01/25 05:58:28.906
1,3641,63469,-63.380,6.600,,-6.600,1980/01/25 05:58:29.015
1,3648,63594,-63.520,6.600,,-6.600,1980/01/25 05:58:29.140
1,3655,63750,-63.670,6.600,,-6.600,1980/01/25 05:58:29.296
1,3662,63875,-63.810,6.600,,-6.600,1980/01/25 05:58:29.421
1,3669,64000,-63.910,6.600,,-6.600,1980/01/25 05:58:29.546
1,3676,64110,-64.040,6.600,,-6.600,1980/01/25 05:58:29.656
1,3683,64219,-64.150,6.600,,-6.600,1980/01/25 05:58:29.765
1,3690,64516,-64.250,6.600,,-6.600,1980/01/25 05:58:30.062
1,3697,64625,-64.540,6.600,,-6.600,1980/01/25 05:58:30.171
1,3704,64750,-64.680,6.600,,-6.600,1980/01/25 05:58:30.296
1,3711,64860,-64.790,6.600,,-6.600,1980/01/25 05:58:30.406
1,3718,64969,-64.890,6.600,,-6.600,1980/01/25 05:58:30.515
1,3725,65094,-65.000,6.600,,-6.600,1980/01/25 05:58:30.640
1,3732,65219,-65.150,6.600,,-6.600,1980/01/25 05:58:30.765
1,3739,65329,-65.250,6.600,,-6.600,1980/01/25 05:58:30.875
1,3746,65438,-65.360,6.600,,-6.600,1980/01/25 05:58:30.984
1,3753,65563,-65.490,6.600,,-6.600,1980/01/25 05:58:31.109
1,3760,65672,-65.600,6.600,,-6.600,1980/01/25 05:58:31.218
1,3767,65813,-65.740,6.600,,-6.600,1980/01/25 05:58:31.359
1,3774,65938,-65.860,6.600,,-6.600,1980/01/25 05:58:31.484
1,3781,66047,-65.980,6.600,,-6.600,1980/01/25 05:58:31.593
1,3788,66172,-66.100,6.600,,-6.600,1980/01/25 05:58:31.718
1,3795,66297,-66.220,6.600,,-6.600,1980/01/25 05:58:31.843
1,3802,66438,-66.370,6.700,,-6.700,1980/01/25 05:58:31.984
1,3809,66579,-66.500,6.600,,-6.600,1980/01/25 05:58:32.125
1,3816,66688,-66.620,6.600,,-6.600,1980/01/25 05:58:32.234
1,3823,66797,-66.720,6.600,,-6.600,1980/01/25 05:58:32.343
1,3830,66907,-66.820,6.600,,-6.600,1980/01/25 05:58:32.453
1,3837,67047,-66.960,6.600,,-6.600,1980/01/25 05:58:32.593
1,3844,67157,-67.080,6.600,,-6.600,1980/01/25 05:58:32.703
1,3851,67266,-67.190,6.600,,-6.600,1980/01/25 05:58:32.812
1,3858,67375,-67.300,6.700,,-6.700,1980/01/25 05:58:32.921
1,3865,67500,-67.410,6.600,,-6.600,1980/01/25 05:58:33.046
1,3872,67610,-67.530,6.600,,-6.600,1980/01/25 05:58:33.156
1,3879,67750,-67.680,6.700,,-6.700,1980/01/25 05:58:33.296
1,3886,67860,-67.780,6.600,,-6.600,1980/01/25 05:58:33.406
1,3893,68125,-68.050,6.600,,-6.600,1980/01/25 05:58:33.671
1,3900,68235,-68.160,6.600,,-6.600,1980/01/25 05:58:33.781
1,3907,68360,-68.260,6.700,,-6.700,1980/01/25 05:58:33.906
1,3914,68469,-68.380,6.700,,-6.700,1980/01/25 05:58:34.015
1,3921,68579,-68.500,6.600,,-6.600,1980/01/25 05:58:34.125
1,3928,68704,-68.620,6.700,,-6.700,1980/01/25 05:58:34.250
1,3935,68813,-68.740,6.700,,-6.700,1980/01/25 05:58:34.359
1,3942,68938,-68.850,6.700,,-6.700,1980/01/25 05:58:34.484
1,3949,69047,-68.980,6.600,,-6.600,1980/01/25 05:58:34.593
1,3956,69188,-69.100,6.700,,-6.700,1980/01/25 05:58:34.734
1,3963,69313,-69.240,6.600,,-6.600,1980/01/25 05:58:34.859
1,3970,69438,-69.350,6.600,,-6.600,1980/01/25 05:58:34.984
1,3977,69563,-69.490,6.700,,-6.700,1980/01/25 05:58:35.109
1,3984,69688,-69.610,6.600,,-6.600,1980/01/25 05:58:35.234
1,3991,69797,-69.720,6.600,,-6.600,1980/01/25 05:58:35.343
1,3998,69922,-69.850,6.600,,-6.600,1980/01/25 05:58:35.468
1,4005,70047,-69.970,6.600,,-6.600,1980/01/25 05:58:35.593
1,4012,70172,-70.100,6.600,,-6.600,1980/01/25 05:58:35.718
1,4019,70297,-70.230,6.600,,-6.600,1980/01/25 05:58:35.843
1,4026,70407,-70.320,6.600,,-6.600,1980/01/25 05:58:35.953
1,4033,70516,-70.440,6.600,,-6.600,1980/01/25 05:58:36.062
1,4040,70625,-70.550,6.600,,-6.600,1980/01/25 05:58:36.171
1,4047,70735,-70.650,6.600,,-6.600,1980/01/25 05:58:36.281
1,4054,70860,-70.780,6.600,,-6.600,1980/01/25 05:58:36.406
1,4061,70985,-70.900,6.600,,-6.600,1980/01/25 05:58:36.531
1,4068,71110,-71.020,6.600,,-6.600,1980/01/25 05:58:36.656
1,4075,71219,-71.130,6.600,,-6.600,1980/01/25 05:58:36.765
1,4082,71329,-71.240,6.500,,-6.500,1980/01/25 05:58:36.875
1,4089,71610,-71.360,6.500,,-6.500,1980/01/25 05:58:37.156
1,4096,71735,-71.650,6.500,,-6.500,1980/01/25 05:58:37.281
1,4103,71875,-71.780,6.500,,-6.500,1980/01/25 05:58:37.421
1,4110,72000,-71.910,6.500,,-6.500,1980/01/25 05:58:37.546
1,4117,72141,-72.060,6.500,,-6.500,1980/01/25 05:58:37.687
1,4124,72250,-72.170,6.500,,-6.500,1980/01/25 05:58:37.796
1,4131,72375,-72.300,6.500,,-6.500,1980/01/25 05:58:37.921
1,4138,72485,-72.410,6.500,,-6.500,1980/01/25 05:58:38.031
1,4145,72610,-72.540,6.500,,-6.500,1980/01/25 05:58:38.156
1,4152,72719,-72.630,6.500,,-6.500,1980/01/25 05:58:38.265
1,4159,72860,-72.780,6.500,,-6.500,1980/01/25 05:58:38.406
1,4166,73000,-72.920,6.500,,-6.500,1980/01/25 05:58:38.546
1,4173,73110,-73.030,6.500,,-6.500,1980/01/25 05:58:38.656
1,4180,73219,-73.150,6.500,,-6.500,1980/01/25 05:58:38.765
1,4187,73329,-73.250,6.500,,-6.500,1980/01/25 05:58:38.875
1,4194,73469,-73.390,6.500,,-6.500,1980/01/25 05:58:39.015
1,4201,73594,-73.510,6.500,,-6.500,1980/01/25 05:58:39.140
1,4208,73735,-73.650,6.500,,-6.500,1980/01/25 05:58:39.281
1,4215,73860,-73.780,6.400,,-6.400,1980/01/25 05:58:39.406
1,4222,73969,-73.890,6.500,,-6.500,1980/01/25 05:58:39.515
1,4229,74094,-74.000,6.400,,-6.400,1980/01/25 05:58:39.640
1,4236,74219,-74.100,6.500,,-6.500,1980/01/25 05:58:39.765
1,4243,74329,-74.250,6.400,,-6.400,1980/01/25 05:58:39.875
1,4250,74454,-74.370,6.400,,-6.400,1980/01/25 05:58:40.000
1,4257,74563,-74.480,6.400,,-6.400,1980/01/25 05:58:40.109
1,4264,74672,-74.590,6.400,,-6.400,1980/01/25 05:58:40.218
1,4271,74782,-74.690,6.400,,-6.400,1980/01/25 05:58:40.328
1,4278,74922,-74.840,6.300,,-6.300,1980/01/25 05:58:40.468
1,4285,75032,-74.940,6.300,,-6.300,1980/01/25 05:58:40.578
1,4292,75313,-75.210,6.300,,-6.300,1980/01/25 05:58:40.859
1,4299,75422,-75.330,6.300,,-6.300,1980/01/25 05:58:40.968
1,4306,75532,-75.450,6.300,,-6.300,1980/01/25 05:58:41.078
1,4313,75672,-75.580,6.300,,-6.300,1980/01/25 05:58:41.218
1,4320,75782,-75.710,6.300,,-6.300,1980/01/25 05:58:41.328
1,4327,75891,-75.810,6.300,,-6.300,1980/01/25 05:58:41.437
1,4334,76000,-75.930,6.300,,-6.300,1980/01/25 05:58:41.546
1,4341,76110,-76.030,6.200,,-6.200,1980/01/25 05:58:41.656
1,4348,76219,-76.120,6.200,,-6.200,1980/01/25 05:58:41.765
1,4355,76329,-76.240,6.200,,-6.200,1980/01/25 05:58:41.875
1,4362,76438,-76.350,6.200,,-6.200,1980/01/25 05:58:41.984
1,4369,76547,-76.470,6.200,,-6.200,1980/01/25 05:58:42.093
1,4376,76657,-76.580,6.200,,-6.200,1980/01/25 05:58:42.203
1,4383,76766,-76.680,6.200,,-6.200,1980/01/25 05:58:42.312
1,4390,76907,-76.820,6.200,,-6.200,1980/01/25 05:58:42.453
1,4397,77016,-76.930,6.200,,-6.200,1980/01/25 05:58:42.562
1,4404,77141,-77.060,6.100,,-6.100,1980/01/25 05:58:42.687
1,4411,77266,-77.180,6.100,,-6.100,1980/01/25 05:58:42.812
1,4418,77391,-77.310,6.100,,-6.100,1980/01/25 05:58:42.937
1,4425,77516,-77.410,6.100,,-6.100,1980/01/25 05:58:43.062
1,4432,77625,-77.550,6.100,,-6.100,1980/01/25 05:58:43.171
1,4439,77735,-77.650,6.100,,-6.100,1980/01/25 05:58:43.281
1,4446,77844,-77.760,6.100,,-6.100,1980/01/25 05:58:43.390
1,4453,77969,-77.870,6.100,,-6.100,1980/01/25 05:58:43.515
1,4460,78110,-78.010,6.100,,-6.100,1980/01/25 05:58:43.656
1,4467,78235,-78.150,6.000,,-6.000,1980/01/25 05:58:43.781
1,4474,78344,-78.250,6.000,,-6.000,1980/01/25 05:58:43.890
1,4481,78469,-78.370,6.000,,-6.000,1980/01/25 05:58:44.015
1,4488,78766,-78.500,6.000,,-6.000,1980/01/25 05:58:44.312
1,4495,78891,-78.770,5.900,,-5.900,1980/01/25 05:58:44.437
1,4502,79032,-78.930,5.900,,-5.900,1980/01/25 05:58:44.578
1,4509,79141,-79.060,5.900,,-5.900,1980/01/25 05:58:44.687
1,4516,79250,-79.170,5.900,,-5.900,1980/01/25 05:58:44.796
1,4523,79360,-79.280,5.900,,-5.900,1980/01/25 05:58:44.906
1,4530,79469,-79.380,5.900,,-5.900,1980/01/25 05:58:45.015
1,4537,79610,-79.520,5.900,,-5.900,1980/01/25 05:58:45.156
1,4544,79735,-79.640,5.800,,-5.800,1980/01/25 05:58:45.281
1,4551,79844,-79.750,5.800,,-5.800,1980/01/25 05:58:45.390
1,4558,79969,-79.890,5.800,,-5.800,1980/01/25 05:58:45.515
1,4565,80094,-80.000,5.800,,-5.800,1980/01/25 05:58:45.640
1,4572,80235,-80.160,5.700,,-5.700,1980/01/25 05:58:45.781
1,4579,80344,-80.270,5.700,,-5.700,1980/01/25 05:58:45.890
1,4586,80469,-80.370,5.700,,-5.700,1980/01/25 05:58:46.015
1,4593,80594,-80.500,5.700,,-5.700,1980/01/25 05:58:46.140
1,4600,80704,-80.620,5.700,,-5.700,1980/01/25 05:58:46.250
1,4607,80844,-80.760,5.600,,-5.600,1980/01/25 05:58:46.390
1,4614,80954,-80.870,5.600,,-5.600,1980/01/25 05:58:46.500
1,4621,81063,-80.980,5.600,,-5.600,1980/01/25 05:58:46.609
1,4628,81172,-81.090,5.600,,-5.600,1980/01/25 05:58:46.718
1,4635,81282,-81.190,5.600,,-5.600,1980/01/25 05:58:46.828
1,4642,81407,-81.300,5.600,,-5.600,1980/01/25 05:58:46.953
1,4649,81532,-81.440,5.600,,-5.600,1980/01/25 05:58:47.078
1,4656,81641,-81.550,5.500,,-5.500,1980/01/25 05:58:47.187
1,4663,81766,-81.680,5.500,,-5.500,1980/01/25 05:58:47.312
1,4670,81891,-81.800,5.500,,-5.500,1980/01/25 05:58:47.437
1,4677,82016,-81.920,5.500,,-5.500,1980/01/25 05:58:47.562
1,4684,82141,-82.050,5.500,,-5.500,1980/01/25 05:58:47.687
1,4691,82454,-82.350,5.400,,-5.400,1980/01/25 05:58:48.000
1,4698,82563,-82.470,5.400,,-5.400,1980/01/25 05:58:48.109
1,4705,82672,-82.590,5.400,,-5.400,1980/01/25 05:58:48.218
1,4712,82813,-82.700,5.400,,-5.400,1980/01/25 05:58:48.359
1,4719,82922,-82.830,5.300,,-5.300,1980/01/25 05:58:48.468
1,4726,83063,-82.960,5.300,,-5.300,1980/01/25 05:58:48.609
1,4733,83204,-83.110,5.300,,-5.300,1980/01/25 05:58:48.750
1,4740,83313,-83.230,5.300,,-5.300,1980/01/25 05:58:48.859
1,4747,83438,-83.330,5.300,,-5.300,1980/01/25 05:58:48.984
1,4754,83547,-83.460,5.200,,-5.200,1980/01/25 05:58:49.093
1,4761,83688,-83.590,5.200,,-5.200,1980/01/25 05:58:49.234
1,4768,83813,-83.720,5.200,,-5.200,1980/01/25 05:58:49.359
1,4775,83922,-83.840,5.200,,-5.200,1980/01/25 05:58:49.468
1,4782,84032,-83.940,5.100,,-5.100,1980/01/25 05:58:49.578
1,4789,84157,-84.080,5.100,,-5.100,1980/01/25 05:58:49.703
1,4796,84266,-84.180,5.100,,-5.100,1980/01/25 05:58:49.812
1,4803,84407,-84.320,5.100,,-5.100,1980/01/25 05:58:49.953
1,4810,84516,-84.430,5.100,,-5.100,1980/01/25 05:58:50.062
1,4817,84625,-84.540,5.000,,-5.000,1980/01/25 05:58:50.171
1,4824,84750,-84.660,5.000,,-5.000,1980/01/25 05:58:50.296
1,4831,84860,-84.770,5.000,,-5.000,1980/01/25 05:58:50.406
1,4838,84969,-84.870,5.000,,-5.000,1980/01/25 05:58:50.515
1,4845,85110,-85.010,5.000,,-5.000,1980/01/25 05:58:50.656
1,4852,85250,-85.160,4.900,,-4.900,1980/01/25 05:58:50.796
1,4859,85375,-85.260,4.900,,-4.900,1980/01/25 05:58:50.921
1,4866,85485,-85.400,4.900,,-4.900,1980/01/25 05:58:51.031
1,4873,85594,-85.490,4.900,,-4.900,1980/01/25 05:58:51.140
1,4880,85735,-85.640,4.900,,-4.900,1980/01/25 05:58:51.281
1,4887,85844,-85.740,4.800,,-4.800,1980/01/25 05:58:51.390
1,4894,86188,-86.100,4.800,,-4.800,1980/01/25 05:58:51.734
1,4901,86297,-86.200,4.800,,-4.800,1980/01/25 05:58:51.843
1,4908,86407,-86.310,4.700,,-4.700,1980/01/25 05:58:51.953
1,4915,86516,-86.420,4.700,,-4.700,1980/01/25 05:58:52.062
1,4922,86641,-86.550,4.700,,-4.700,1980/01/25 05:58:52.187
1,4929,86797,-86.710,4.600,,-4.600,1980/01/25 05:58:52.343
1,4936,86922,-86.830,4.600,,-4.600,1980/01/25 05:58:52.468
1,4943,87032,-86.940,4.600,,-4.600,1980/01/25 05:58:52.578
1,4950,87141,-87.050,4.500,,-4.500,1980/01/25 05:58:52.687
1,4957,87250,-87.160,4.500,,-4.500,1980/01/25 05:58:52.796
1,4964,87391,-87.280,4.500,,-4.500,1980/01/25 05:58:52.937
1,4971,87500,-87.410,4.500,,-4.500,1980/01/25 05:58:53.046
1,4978,87625,-87.530,4.400,,-4.400,1980/01/25 05:58:53.171
1,4985,87750,-87.650,4.400,,-4.400,1980/01/25 05:58:53.296
1,4992,87860,-87.780,4.400,,-4.400,1980/01/25 05:58:53.406
1,4999,87969,-87.880,4.400,,-4.400,1980/01/25 05:58:53.515
1,5006,88094,-88.000,4.400,,-4.400,1980/01/25 05:58:53.640
1,5013,88235,-88.140,4.300,,-4.300,1980/01/25 05:58:53.781
1,5020,88375,-88.280,4.300,,-4.300,1980/01/25 05:58:53.921
1,5027,88500,-88.400,4.300,,-4.300,1980/01/25 05:58:54.046
1,5034,88610,-88.510,4.200,,-4.200,1980/01/25 05:58:54.156
1,5041,88750,-88.660,4.200,,-4.200,1980/01/25 05:58:54.296
1,5048,88875,-88.780,4.200,,-4.200,1980/01/25 05:58:54.421
1,5055,89000,-88.910,4.200,,-4.200,1980/01/25 05:58:54.546
1,5062,89110,-89.010,4.100,,-4.100,1980/01/25 05:58:54.656
1,5069,89219,-89.120,4.100,,-4.100,1980/01/25 05:58:54.765
1,5076,89344,-89.210,4.100,,-4.100,1980/01/25 05:58:54.890
1,5083,89454,-89.350,4.000,,-4.000,1980/01/25 05:58:55.000
1,5090,89766,-89.460,4.000,,-4.000,1980/01/25 05:58:55.312
1,5097,89891,-89.790,4.000,,-4.000,1980/01/25 05:58:55.437
1,5104,90000,-89.910,3.900,,-3.900,1980/01/25 05:58:55.546
1,5111,90110,-90.020,3.900,,-3.900,1980/01/25 05:58:55.656
1,5118,90219,-90.120,3.900,,-3.900,1980/01/25 05:58:55.765
1,5125,90329,-90.230,3.800,,-3.800,1980/01/25 05:58:55.875
1,5132,90454,-90.360,3.800,,-3.800,1980/01/25 05:58:56.000
1,5139,90563,-90.470,3.800,,-3.800,1980/01/25 05:58:56.109
1,5146,90688,-90.590,3.700,,-3.700,1980/01/25 05:58:56.234
1,5153,90813,-90.710,3.700,,-3.700,1980/01/25 05:58:56.359
1,5160,90922,-90.830,3.600,,-3.600,1980/01/25 05:58:56.468
1,5167,91032,-90.930,3.600,,-3.600,1980/01/25 05:58:56.578
1,5174,91141,-91.040,3.500,,-3.500,1980/01/25 05:58:56.687
1,5181,91266,-91.170,3.500,,-3.500,1980/01/25 05:58:56.812
1,5188,91407,-91.300,3.400,,-3.400,1980/01/25 05:58:56.953
1,5195,91516,-91.420,3.400,,-3.400,1980/01/25 05:58:57.062
1,5202,91641,-91.550,3.300,,-3.300,1980/01/25 05:58:57.187
1,5209,91766,-91.670,3.300,,-3.300,1980/01/25 05:58:57.312
1,5216,91875,-91.780,3.200,,-3.200,1980/01/25 05:58:57.421
1,5223,92000,-91.880,3.200,,-3.200,1980/01/25 05:58:57.546
1,5230,92141,-92.040,3.100,,-3.100,1980/01/25 05:58:57.687
1,5237,92250,-92.160,3.100,,-3.100,1980/01/25 05:58:57.796
1,5244,92360,-92.260,3.000,,-3.000,1980/01/25 05:58:57.906
1,5251,92485,-92.390,3.000,,-3.000,1980/01/25 05:58:58.031
1,5258,92625,-92.510,2.900,,-2.900,1980/01/25 05:58:58.171
1,5265,92750,-92.640,2.800,,-2.800,1980/01/25 05:58:58.296
1,5272,92875,-92.770,2.700,,-2.700,1980/01/25 05:58:58.421
1,5279,93000,-92.890,2.600,,-2.600,1980/01/25 05:58:58.546
1,5286,93125,-93.020,1.500,,-1.500,1980/01/25 05:58:58.671
1,5293,93438,-93.290,,0.300,0.300,1980/01/25 05:58:58.984
1,5300,93547,-93.450,,0.300,0.300,1980/01/25 05:58:59.093
1,5307,93657,-93.530,,0.300,0.300,1980/01/25 05:58:59.203
1,5308,93672,-93.530,,0.200,0.200,1980/01/25 05:58:59.218