File: 1st-Semester-Fall-2021/FEC1/LDPE Tensile Strength Tests/Team 3 LDPE 50-T2.csv
Cycle,Test Point,Time (ms),Distance (mm),Up (N),Down (N),Force Data (N),Date / Time
1,1,0,32.370,0.300,,-0.300,1980/01/05 05:05:55.984
1,9,125,32.290,0.300,,-0.300,1980/01/05 05:05:56.109
1,17,250,32.190,0.300,,-0.300,1980/01/05 05:05:56.234
1,25,375,32.090,0.400,,-0.400,1980/01/05 05:05:56.359
1,33,500,31.990,0.500,,-0.500,1980/01/05 05:05:56.484
1,41,625,31.870,0.500,,-0.500,1980/01/05 05:05:56.609
1,49,750,31.770,0.600,,-0.600,1980/01/05 05:05:56.734
1,57,875,31.660,0.600,,-0.600,1980/01/05 05:05:56.859
1,65,1016,31.560,0.700,,-0.700,1980/01/05 05:05:57.000
1,73,1187,31.400,0.800,,-0.800,1980/01/05 05:05:57.171
1,81,1312,31.300,0.900,,-0.900,1980/01/05 05:05:57.296
1,89,1437,31.200,1.000,,-1.000,1980/01/05 05:05:57.421
1,97,1578,31.090,1.100,,-1.100,1980/01/05 05:05:57.562
1,105,1703,30.980,1.200,,-1.200,1980/01/05 05:05:57.687
1,113,1828,30.870,1.300,,-1.300,1980/01/05 05:05:57.812
1,121,1969,30.760,1.400,,-1.400,1980/01/05 05:05:57.953
1,129,2094,30.650,1.600,,-1.600,1980/01/05 05:05:58.078
1,137,2219,30.560,1.600,,-1.600,1980/01/05 05:05:58.203
1,145,2359,30.440,1.700,,-1.700,1980/01/05 05:05:58.343
1,153,2484,30.330,1.800,,-1.800,1980/01/05 05:05:58.468
1,161,2609,30.220,1.900,,-1.900,1980/01/05 05:05:58.593
1,169,2734,30.130,2.000,,-2.000,1980/01/05 05:05:58.718
1,177,2875,30.010,2.100,,-2.100,1980/01/05 05:05:58.859
1,185,3000,29.890,2.200,,-2.200,1980/01/05 05:05:58.984
1,193,3125,29.790,2.300,,-2.300,1980/01/05 05:05:59.109
1,201,3250,29.690,2.400,,-2.400,1980/01/05 05:05:59.234
1,209,3375,29.590,2.400,,-2.400,1980/01/05 05:05:59.359
1,217,3516,29.460,2.500,,-2.500,1980/01/05 05:05:59.500
1,225,3641,29.360,2.600,,-2.600,1980/01/05 05:05:59.625
1,233,3766,29.260,2.700,,-2.700,1980/01/05 05:05:59.750
1,241,3891,29.160,2.700,,-2.700,1980/01/05 05:05:59.875
1,249,4016,29.060,2.800,,-2.800,1980/01/05 05:06:00.000
1,257,4141,28.950,2.800,,-2.800,1980/01/05 05:06:00.125
1,265,4266,28.840,2.900,,-2.900,1980/01/05 05:06:00.250
1,273,4437,28.700,3.000,,-3.000,1980/01/05 05:06:00.421
1,281,4578,28.600,3.000,,-3.000,1980/01/05 05:06:00.562
1,289,4703,28.480,3.100,,-3.100,1980/01/05 05:06:00.687
1,297,4828,28.370,3.100,,-3.100,1980/01/05 05:06:00.812
1,305,4969,28.260,3.200,,-3.200,1980/01/05 05:06:00.953
1,313,5094,28.160,3.200,,-3.200,1980/01/05 05:06:01.078
1,321,5219,28.050,3.300,,-3.300,1980/01/05 05:06:01.203
1,329,5391,27.910,3.300,,-3.300,1980/01/05 05:06:01.375
1,337,5516,27.800,3.300,,-3.300,1980/01/05 05:06:01.500
1,345,5641,27.690,3.400,,-3.400,1980/01/05 05:06:01.625
1,353,5781,27.600,3.400,,-3.400,1980/01/05 05:06:01.765
1,361,5906,27.480,3.500,,-3.500,1980/01/05 05:06:01.890
1,369,6031,27.380,3.500,,-3.500,1980/01/05 05:06:02.015
1,377,6156,27.270,3.600,,-3.600,1980/01/05 05:06:02.140
1,385,6281,27.170,3.600,,-3.600,1980/01/05 05:06:02.265
1,393,6406,27.060,3.600,,-3.600,1980/01/05 05:06:02.390
1,401,6531,26.960,3.600,,-3.600,1980/01/05 05:06:02.515
1,409,6656,26.860,3.700,,-3.700,1980/01/05 05:06:02.640
1,417,6781,26.760,3.700,,-3.700,1980/01/05 05:06:02.765
1,425,6906,26.650,3.700,,-3.700,1980/01/05 05:06:02.890
1,433,7031,26.550,3.700,,-3.700,1980/01/05 05:06:03.015
1,441,7156,26.440,3.800,,-3.800,1980/01/05 05:06:03.140
1,449,7281,26.340,3.800,,-3.800,1980/01/05 05:06:03.265
1,457,7406,26.230,3.800,,-3.800,1980/01/05 05:06:03.390
1,465,7531,26.130,3.800,,-3.800,1980/01/05 05:06:03.515
1,473,7703,25.980,3.900,,-3.900,1980/01/05 05:06:03.687
1,481,7828,25.890,3.900,,-3.900,1980/01/05 05:06:03.812
1,489,7953,25.780,3.900,,-3.900,1980/01/05 05:06:03.937
1,497,8078,25.670,3.900,,-3.900,1980/01/05 05:06:04.062
1,505,8203,25.570,4.000,,-4.000,1980/01/05 05:06:04.187
1,513,8328,25.460,4.000,,-4.000,1980/01/05 05:06:04.312
1,521,8453,25.360,4.000,,-4.000,1980/01/05 05:06:04.437
1,529,8578,25.250,4.000,,-4.000,1980/01/05 05:06:04.562
1,537,8703,25.160,4.000,,-4.000,1980/01/05 05:06:04.687
1,545,8844,25.050,4.100,,-4.100,1980/01/05 05:06:04.828
1,553,8969,24.940,4.100,,-4.100,1980/01/05 05:06:04.953
1,561,9094,24.830,4.100,,-4.100,1980/01/05 05:06:05.078
1,569,9219,24.730,4.100,,-4.100,1980/01/05 05:06:05.203
1,577,9344,24.630,4.100,,-4.100,1980/01/05 05:06:05.328
1,585,9469,24.520,4.100,,-4.100,1980/01/05 05:06:05.453
1,593,9594,24.420,4.100,,-4.100,1980/01/05 05:06:05.578
1,601,9719,24.310,4.200,,-4.200,1980/01/05 05:06:05.703
1,609,9844,24.210,4.200,,-4.200,1980/01/05 05:06:05.828
1,617,9969,24.100,4.200,,-4.200,1980/01/05 05:06:05.953
1,625,10094,24.000,4.200,,-4.200,1980/01/05 05:06:06.078
1,633,10219,23.890,4.200,,-4.200,1980/01/05 05:06:06.203
1,641,10344,23.790,4.200,,-4.200,1980/01/05 05:06:06.328
1,649,10469,23.690,4.200,,-4.200,1980/01/05 05:06:06.453
1,657,10594,23.590,4.200,,-4.200,1980/01/05 05:06:06.578
1,665,10719,23.490,4.300,,-4.300,1980/01/05 05:06:06.703
1,673,10906,23.330,4.300,,-4.300,1980/01/05 05:06:06.890
1,681,11031,23.220,4.300,,-4.300,1980/01/05 05:06:07.015
1,689,11156,23.120,4.300,,-4.300,1980/01/05 05:06:07.140
1,697,11281,23.010,4.300,,-4.300,1980/01/05 05:06:07.265
1,705,11406,22.910,4.300,,-4.300,1980/01/05 05:06:07.390
1,713,11547,22.790,4.300,,-4.300,1980/01/05 05:06:07.531
1,721,11672,22.690,4.300,,-4.300,1980/01/05 05:06:07.656
1,729,11812,22.580,4.300,,-4.300,1980/01/05 05:06:07.796
1,737,11953,22.450,4.400,,-4.400,1980/01/05 05:06:07.937
1,745,12109,22.330,4.400,,-4.400,1980/01/05 05:06:08.093
1,753,12234,22.230,4.400,,-4.400,1980/01/05 05:06:08.218
1,761,12359,22.110,4.400,,-4.400,1980/01/05 05:06:08.343
1,769,12500,22.000,4.400,,-4.400,1980/01/05 05:06:08.484
1,777,12625,21.890,4.400,,-4.400,1980/01/05 05:06:08.609
1,785,12766,21.780,4.400,,-4.400,1980/01/05 05:06:08.750
1,793,12906,21.660,4.400,,-4.400,1980/01/05 05:06:08.890
1,801,13031,21.560,4.400,,-4.400,1980/01/05 05:06:09.015
1,809,13187,21.440,4.400,,-4.400,1980/01/05 05:06:09.171
1,817,13328,21.320,4.400,,-4.400,1980/01/05 05:06:09.312
1,825,13453,21.200,4.400,,-4.400,1980/01/05 05:06:09.437
1,833,13578,21.100,4.500,,-4.500,1980/01/05 05:06:09.562
1,841,13719,21.000,4.500,,-4.500,1980/01/05 05:06:09.703
1,849,13875,20.860,4.500,,-4.500,1980/01/05 05:06:09.859
1,857,14016,20.730,4.500,,-4.500,1980/01/05 05:06:10.000
1,865,14156,20.610,4.500,,-4.500,1980/01/05 05:06:10.140
1,873,14344,20.470,4.500,,-4.500,1980/01/05 05:06:10.328
1,881,14469,20.360,4.500,,-4.500,1980/01/05 05:06:10.453
1,889,14594,20.250,4.500,,-4.500,1980/01/05 05:06:10.578
1,897,14734,20.130,4.500,,-4.500,1980/01/05 05:06:10.718
1,905,14859,20.030,4.500,,-4.500,1980/01/05 05:06:10.843
1,913,15031,19.890,4.500,,-4.500,1980/01/05 05:06:11.015
1,921,15156,19.790,4.500,,-4.500,1980/01/05 05:06:11.140
1,929,15281,19.690,4.500,,-4.500,1980/01/05 05:06:11.265
1,937,15406,19.590,4.500,,-4.500,1980/01/05 05:06:11.390
1,945,15531,19.480,4.600,,-4.600,1980/01/05 05:06:11.515
1,953,15656,19.380,4.500,,-4.500,1980/01/05 05:06:11.640
1,961,15781,19.270,4.500,,-4.500,1980/01/05 05:06:11.765
1,969,15906,19.170,4.500,,-4.500,1980/01/05 05:06:11.890
1,977,16031,19.060,4.600,,-4.600,1980/01/05 05:06:12.015
1,985,16156,18.960,4.600,,-4.600,1980/01/05 05:06:12.140
1,993,16297,18.840,4.600,,-4.600,1980/01/05 05:06:12.281
1,1001,16422,18.740,4.600,,-4.600,1980/01/05 05:06:12.406
1,1009,16562,18.620,4.600,,-4.600,1980/01/05 05:06:12.546
1,1017,16734,18.490,4.600,,-4.600,1980/01/05 05:06:12.718
1,1025,16859,18.370,4.600,,-4.600,1980/01/05 05:06:12.843
1,1033,16984,18.270,4.600,,-4.600,1980/01/05 05:06:12.968
1,1041,17109,18.170,4.600,,-4.600,1980/01/05 05:06:13.093
1,1049,17234,18.060,4.600,,-4.600,1980/01/05 05:06:13.218
1,1057,17359,17.960,4.600,,-4.600,1980/01/05 05:06:13.343
1,1065,17484,17.850,4.600,,-4.600,1980/01/05 05:06:13.468
1,1073,17672,17.700,4.600,,-4.600,1980/01/05 05:06:13.656
1,1081,17812,17.590,4.600,,-4.600,1980/01/05 05:06:13.796
1,1089,17937,17.470,4.600,,-4.600,1980/01/05 05:06:13.921
1,1097,18078,17.350,4.700,,-4.700,1980/01/05 05:06:14.062
1,1105,18203,17.260,4.700,,-4.700,1980/01/05 05:06:14.187
1,1113,18344,17.150,4.700,,-4.700,1980/01/05 05:06:14.328
1,1121,18469,17.040,4.700,,-4.700,1980/01/05 05:06:14.453
1,1129,18594,16.930,4.700,,-4.700,1980/01/05 05:06:14.578
1,1137,18734,16.820,4.700,,-4.700,1980/01/05 05:06:14.718
1,1145,18859,16.710,4.700,,-4.700,1980/01/05 05:06:14.843
1,1153,19000,16.600,4.700,,-4.700,1980/01/05 05:06:14.984
1,1161,19125,16.480,4.700,,-4.700,1980/01/05 05:06:15.109
1,1169,19250,16.380,4.700,,-4.700,1980/01/05 05:06:15.234
1,1177,19391,16.270,4.700,,-4.700,1980/01/05 05:06:15.375
1,1185,19516,16.160,4.700,,-4.700,1980/01/05 05:06:15.500
1,1193,19641,16.060,4.700,,-4.700,1980/01/05 05:06:15.625
1,1201,19797,15.930,4.700,,-4.700,1980/01/05 05:06:15.781
1,1209,19937,15.820,4.700,,-4.700,1980/01/05 05:06:15.921
1,1217,20062,15.710,4.800,,-4.800,1980/01/05 05:06:16.046
1,1225,20219,15.590,4.700,,-4.700,1980/01/05 05:06:16.203
1,1233,20359,15.460,4.800,,-4.800,1980/01/05 05:06:16.343
1,1241,20484,15.350,4.700,,-4.700,1980/01/05 05:06:16.468
1,1249,20609,15.250,4.800,,-4.800,1980/01/05 05:06:16.593
1,1257,20734,15.160,4.800,,-4.800,1980/01/05 05:06:16.718
1,1265,20875,15.030,4.800,,-4.800,1980/01/05 05:06:16.859
1,1273,21078,14.860,4.800,,-4.800,1980/01/05 05:06:17.062
1,1281,21219,14.750,4.800,,-4.800,1980/01/05 05:06:17.203
1,1289,21344,14.650,4.800,,-4.800,1980/01/05 05:06:17.328
1,1297,21484,14.540,4.800,,-4.800,1980/01/05 05:06:17.468
1,1305,21625,14.410,4.800,,-4.800,1980/01/05 05:06:17.609
1,1313,21750,14.300,4.800,,-4.800,1980/01/05 05:06:17.734
1,1321,21891,14.190,4.800,,-4.800,1980/01/05 05:06:17.875
1,1329,22016,14.090,4.800,,-4.800,1980/01/05 05:06:18.000
1,1337,22141,13.980,4.800,,-4.800,1980/01/05 05:06:18.125
1,1345,22266,13.880,4.800,,-4.800,1980/01/05 05:06:18.250
1,1353,22406,13.760,4.800,,-4.800,1980/01/05 05:06:18.390
1,1361,22531,13.660,4.800,,-4.800,1980/01/05 05:06:18.515
1,1369,22656,13.560,4.900,,-4.900,1980/01/05 05:06:18.640
1,1377,22781,13.450,4.900,,-4.900,1980/01/05 05:06:18.765
1,1385,22922,13.340,4.900,,-4.900,1980/01/05 05:06:18.906
1,1393,23047,13.230,4.900,,-4.900,1980/01/05 05:06:19.031
1,1401,23187,13.100,4.900,,-4.900,1980/01/05 05:06:19.171
1,1409,23312,13.010,4.900,,-4.900,1980/01/05 05:06:19.296
1,1417,23437,12.900,4.900,,-4.900,1980/01/05 05:06:19.421
1,1425,23562,12.800,4.900,,-4.900,1980/01/05 05:06:19.546
1,1433,23703,12.690,4.900,,-4.900,1980/01/05 05:06:19.687
1,1441,23844,12.570,4.900,,-4.900,1980/01/05 05:06:19.828
1,1449,23969,12.460,4.900,,-4.900,1980/01/05 05:06:19.953
1,1457,24109,12.350,4.900,,-4.900,1980/01/05 05:06:20.093
1,1465,24250,12.220,4.900,,-4.900,1980/01/05 05:06:20.234
1,1473,24469,12.060,5.000,,-5.000,1980/01/05 05:06:20.453
1,1481,24625,11.920,4.900,,-4.900,1980/01/05 05:06:20.609
1,1489,24750,11.810,4.900,,-4.900,1980/01/05 05:06:20.734
1,1497,24891,11.690,5.000,,-5.000,1980/01/05 05:06:20.875
1,1505,25016,11.590,4.900,,-4.900,1980/01/05 05:06:21.000
1,1513,25141,11.480,5.000,,-5.000,1980/01/05 05:06:21.125
1,1521,25266,11.380,5.000,,-5.000,1980/01/05 05:06:21.250
1,1529,25391,11.280,5.000,,-5.000,1980/01/05 05:06:21.375
1,1537,25547,11.150,5.000,,-5.000,1980/01/05 05:06:21.531
1,1545,25672,11.040,5.000,,-5.000,1980/01/05 05:06:21.656
1,1553,25828,10.950,5.000,,-5.000,1980/01/05 05:06:21.812
1,1561,25953,10.810,5.000,,-5.000,1980/01/05 05:06:21.937
1,1569,26109,10.710,5.000,,-5.000,1980/01/05 05:06:22.093
1,1577,26234,10.570,5.000,,-5.000,1980/01/05 05:06:22.218
1,1585,26359,10.460,5.000,,-5.000,1980/01/05 05:06:22.343
1,1593,26484,10.370,5.000,,-5.000,1980/01/05 05:06:22.468
1,1601,26656,10.270,5.000,,-5.000,1980/01/05 05:06:22.640
1,1609,26781,10.120,5.000,,-5.000,1980/01/05 05:06:22.765
1,1617,26937,9.990,5.000,,-5.000,1980/01/05 05:06:22.921
1,1625,27062,9.890,5.000,,-5.000,1980/01/05 05:06:23.046
1,1633,27187,9.780,5.000,,-5.000,1980/01/05 05:06:23.171
1,1641,27312,9.680,5.100,,-5.100,1980/01/05 05:06:23.296
1,1649,27453,9.580,5.000,,-5.000,1980/01/05 05:06:23.437
1,1657,27594,9.450,5.100,,-5.100,1980/01/05 05:06:23.578
1,1665,27719,9.340,5.100,,-5.100,1980/01/05 05:06:23.703
1,1673,27922,9.180,5.100,,-5.100,1980/01/05 05:06:23.906
1,1681,28047,9.070,5.100,,-5.100,1980/01/05 05:06:24.031
1,1689,28187,8.950,5.100,,-5.100,1980/01/05 05:06:24.171
1,1697,28328,8.840,5.100,,-5.100,1980/01/05 05:06:24.312
1,1705,28453,8.730,5.100,,-5.100,1980/01/05 05:06:24.437
1,1713,28594,8.620,5.100,,-5.100,1980/01/05 05:06:24.578
1,1721,28719,8.510,5.100,,-5.100,1980/01/05 05:06:24.703
1,1729,28844,8.410,5.100,,-5.100,1980/01/05 05:06:24.828
1,1737,28984,8.300,5.100,,-5.100,1980/01/05 05:06:24.968
1,1745,29109,8.180,5.100,,-5.100,1980/01/05 05:06:25.093
1,1753,29234,8.080,5.100,,-5.100,1980/01/05 05:06:25.218
1,1761,29375,7.970,5.100,,-5.100,1980/01/05 05:06:25.359
1,1769,29531,7.840,5.100,,-5.100,1980/01/05 05:06:25.515
1,1777,29656,7.730,5.100,,-5.100,1980/01/05 05:06:25.640
1,1785,29828,7.600,5.100,,-5.100,1980/01/05 05:06:25.812
1,1793,29984,7.470,5.200,,-5.200,1980/01/05 05:06:25.968
1,1801,30109,7.350,5.200,,-5.200,1980/01/05 05:06:26.093
1,1809,30234,7.250,5.200,,-5.200,1980/01/05 05:06:26.218
1,1817,30375,7.130,5.200,,-5.200,1980/01/05 05:06:26.359
1,1825,30500,7.020,5.200,,-5.200,1980/01/05 05:06:26.484
1,1833,30641,6.920,5.200,,-5.200,1980/01/05 05:06:26.625
1,1841,30766,6.800,5.200,,-5.200,1980/01/05 05:06:26.750
1,1849,30891,6.700,5.200,,-5.200,1980/01/05 05:06:26.875
1,1857,31016,6.600,5.200,,-5.200,1980/01/05 05:06:27.000
1,1865,31141,6.490,5.200,,-5.200,1980/01/05 05:06:27.125
1,1873,31359,6.320,5.200,,-5.200,1980/01/05 05:06:27.343
1,1881,31484,6.210,5.200,,-5.200,1980/01/05 05:06:27.468
1,1889,31609,6.110,5.300,,-5.300,1980/01/05 05:06:27.593
1,1897,31734,6.010,5.200,,-5.200,1980/01/05 05:06:27.718
1,1905,31875,5.890,5.300,,-5.300,1980/01/05 05:06:27.859
1,1913,32016,5.770,5.200,,-5.200,1980/01/05 05:06:28.000
1,1921,32141,5.660,5.300,,-5.300,1980/01/05 05:06:28.125
1,1929,32266,5.570,5.300,,-5.300,1980/01/05 05:06:28.250
1,1937,32406,5.440,5.300,,-5.300,1980/01/05 05:06:28.390
1,1945,32531,5.340,5.300,,-5.300,1980/01/05 05:06:28.515
1,1953,32672,5.230,5.300,,-5.300,1980/01/05 05:06:28.656
1,1961,32797,5.110,5.300,,-5.300,1980/01/05 05:06:28.781
1,1969,32937,5.000,5.300,,-5.300,1980/01/05 05:06:28.921
1,1977,33062,4.900,5.300,,-5.300,1980/01/05 05:06:29.046
1,1985,33203,4.780,5.300,,-5.300,1980/01/05 05:06:29.187
1,1993,33328,4.670,5.300,,-5.300,1980/01/05 05:06:29.312
1,2001,33453,4.570,5.300,,-5.300,1980/01/05 05:06:29.437
1,2009,33578,4.460,5.300,,-5.300,1980/01/05 05:06:29.562
1,2017,33719,4.360,5.300,,-5.300,1980/01/05 05:06:29.703
1,2025,33844,4.250,5.300,,-5.300,1980/01/05 05:06:29.828
1,2033,33969,4.140,5.300,,-5.300,1980/01/05 05:06:29.953
1,2041,34109,4.020,5.300,,-5.300,1980/01/05 05:06:30.093
1,2049,34234,3.920,5.300,,-5.300,1980/01/05 05:06:30.218
1,2057,34359,3.820,5.300,,-5.300,1980/01/05 05:06:30.343
1,2065,34500,3.710,5.400,,-5.400,1980/01/05 05:06:30.484
1,2073,34719,3.530,5.400,,-5.400,1980/01/05 05:06:30.703
1,2081,34844,3.410,5.400,,-5.400,1980/01/05 05:06:30.828
1,2089,34969,3.320,5.400,,-5.400,1980/01/05 05:06:30.953
1,2097,35094,3.210,5.400,,-5.400,1980/01/05 05:06:31.078
1,2105,35219,3.100,5.400,,-5.400,1980/01/05 05:06:31.203
1,2113,35344,3.000,5.400,,-5.400,1980/01/05 05:06:31.328
1,2121,35484,2.880,5.400,,-5.400,1980/01/05 05:06:31.468
1,2129,35609,2.770,5.400,,-5.400,1980/01/05 05:06:31.593
1,2137,35750,2.650,5.400,,-5.400,1980/01/05 05:06:31.734
1,2145,35875,2.550,5.400,,-5.400,1980/01/05 05:06:31.859
1,2153,36000,2.450,5.400,,-5.400,1980/01/05 05:06:31.984
1,2161,36141,2.330,5.400,,-5.400,1980/01/05 05:06:32.125
1,2169,36281,2.220,5.500,,-5.500,1980/01/05 05:06:32.265
1,2177,36406,2.110,5.400,,-5.400,1980/01/05 05:06:32.390
1,2185,36531,2.010,5.500,,-5.500,1980/01/05 05:06:32.515
1,2193,36656,1.910,5.500,,-5.500,1980/01/05 05:06:32.640
1,2201,36797,1.800,5.400,,-5.400,1980/01/05 05:06:32.781
1,2209,36937,1.680,5.500,,-5.500,1980/01/05 05:06:32.921
1,2217,37062,1.570,5.500,,-5.500,1980/01/05 05:06:33.046
1,2225,37187,1.470,5.500,,-5.500,1980/01/05 05:06:33.171
1,2233,37312,1.360,5.500,,-5.500,1980/01/05 05:06:33.296
1,2241,37437,1.250,5.500,,-5.500,1980/01/05 05:06:33.421
1,2249,37562,1.150,5.500,,-5.500,1980/01/05 05:06:33.546
1,2257,37687,1.040,5.500,,-5.500,1980/01/05 05:06:33.671
1,2265,37812,0.940,5.500,,-5.500,1980/01/05 05:06:33.796
1,2273,38047,0.760,5.500,,-5.500,1980/01/05 05:06:34.031
1,2281,38172,0.650,5.500,,-5.500,1980/01/05 05:06:34.156
1,2289,38297,0.540,5.500,,-5.500,1980/01/05 05:06:34.281
1,2297,38437,0.430,5.600,,-5.600,1980/01/05 05:06:34.421
1,2305,38594,0.310,5.500,,-5.500,1980/01/05 05:06:34.578
1,2313,38734,0.170,5.500,,-5.500,1980/01/05 05:06:34.718
1,2321,38875,0.070,5.600,,-5.600,1980/01/05 05:06:34.859
1,2329,39000,-0.030,5.600,,-5.600,1980/01/05 05:06:34.984
1,2337,39125,-0.140,5.600,,-5.600,1980/01/05 05:06:35.109
1,2345,39250,-0.240,5.600,,-5.600,1980/01/05 05:06:35.234
1,2353,39391,-0.360,5.600,,-5.600,1980/01/05 05:06:35.375
1,2361,39531,-0.460,5.600,,-5.600,1980/01/05 05:06:35.515
1,2369,39656,-0.580,5.600,,-5.600,1980/01/05 05:06:35.640
1,2377,39781,-0.680,5.600,,-5.600,1980/01/05 05:06:35.765
1,2385,39937,-0.810,5.600,,-5.600,1980/01/05 05:06:35.921
1,2393,40062,-0.920,5.600,,-5.600,1980/01/05 05:06:36.046
1,2401,40187,-1.020,5.600,,-5.600,1980/01/05 05:06:36.171
1,2409,40312,-1.130,5.700,,-5.700,1980/01/05 05:06:36.296
1,2417,40437,-1.230,5.600,,-5.600,1980/01/05 05:06:36.421
1,2425,40562,-1.340,5.700,,-5.700,1980/01/05 05:06:36.546
1,2433,40687,-1.440,5.600,,-5.600,1980/01/05 05:06:36.671
1,2441,40812,-1.540,5.700,,-5.700,1980/01/05 05:06:36.796
1,2449,40953,-1.640,5.700,,-5.700,1980/01/05 05:06:36.937
1,2457,41078,-1.760,5.700,,-5.700,1980/01/05 05:06:37.062
1,2465,41203,-1.860,5.700,,-5.700,1980/01/05 05:06:37.187
1,2473,41422,-2.040,5.700,,-5.700,1980/01/05 05:06:37.406
1,2481,41547,-2.140,5.700,,-5.700,1980/01/05 05:06:37.531
1,2489,41672,-2.250,5.700,,-5.700,1980/01/05 05:06:37.656
1,2497,41812,-2.370,5.700,,-5.700,1980/01/05 05:06:37.796
1,2505,41953,-2.470,5.700,,-5.700,1980/01/05 05:06:37.937
1,2513,42094,-2.600,5.800,,-5.800,1980/01/05 05:06:38.078
1,2521,42219,-2.710,5.800,,-5.800,1980/01/05 05:06:38.203
1,2529,42359,-2.820,5.800,,-5.800,1980/01/05 05:06:38.343
1,2537,42500,-2.950,5.800,,-5.800,1980/01/05 05:06:38.484
1,2545,42641,-3.060,5.800,,-5.800,1980/01/05 05:06:38.625
1,2553,42781,-3.170,5.800,,-5.800,1980/01/05 05:06:38.765
1,2561,42922,-3.290,5.800,,-5.800,1980/01/05 05:06:38.906
1,2569,43047,-3.400,5.800,,-5.800,1980/01/05 05:06:39.031
1,2577,43187,-3.520,5.800,,-5.800,1980/01/05 05:06:39.171
1,2585,43328,-3.640,5.800,,-5.800,1980/01/05 05:06:39.312
1,2593,43453,-3.730,5.800,,-5.800,1980/01/05 05:06:39.437
1,2601,43578,-3.840,5.800,,-5.800,1980/01/05 05:06:39.562
1,2609,43703,-3.940,5.800,,-5.800,1980/01/05 05:06:39.687
1,2617,43828,-4.030,5.800,,-5.800,1980/01/05 05:06:39.812
1,2625,43953,-4.150,5.900,,-5.900,1980/01/05 05:06:39.937
1,2633,44078,-4.250,5.900,,-5.900,1980/01/05 05:06:40.062
1,2641,44203,-4.360,5.900,,-5.900,1980/01/05 05:06:40.187
1,2649,44359,-4.470,5.900,,-5.900,1980/01/05 05:06:40.343
1,2657,44500,-4.610,5.900,,-5.900,1980/01/05 05:06:40.484
1,2665,44625,-4.710,5.900,,-5.900,1980/01/05 05:06:40.609
1,2673,44859,-4.900,5.900,,-5.900,1980/01/05 05:06:40.843
1,2681,45000,-5.020,5.900,,-5.900,1980/01/05 05:06:40.984
1,2689,45125,-5.120,5.900,,-5.900,1980/01/05 05:06:41.109
1,2697,45266,-5.250,5.900,,-5.900,1980/01/05 05:06:41.250
1,2705,45406,-5.350,5.900,,-5.900,1980/01/05 05:06:41.390
1,2713,45531,-5.460,5.900,,-5.900,1980/01/05 05:06:41.515
1,2721,45656,-5.570,5.900,,-5.900,1980/01/05 05:06:41.640
1,2729,45797,-5.680,5.900,,-5.900,1980/01/05 05:06:41.781
1,2737,45922,-5.790,5.900,,-5.900,1980/01/05 05:06:41.906
1,2745,46047,-5.900,5.900,,-5.900,1980/01/05 05:06:42.031
1,2753,46172,-5.990,5.900,,-5.900,1980/01/05 05:06:42.156
1,2761,46297,-6.100,5.900,,-5.900,1980/01/05 05:06:42.281
1,2769,46422,-6.210,5.900,,-5.900,1980/01/05 05:06:42.406
1,2777,46562,-6.320,6.000,,-6.000,1980/01/05 05:06:42.546
1,2785,46703,-6.440,5.900,,-5.900,1980/01/05 05:06:42.687
1,2793,46844,-6.550,6.000,,-6.000,1980/01/05 05:06:42.828
1,2801,46969,-6.660,6.000,,-6.000,1980/01/05 05:06:42.953
1,2809,47094,-6.760,6.000,,-6.000,1980/01/05 05:06:43.078
1,2817,47219,-6.860,6.000,,-6.000,1980/01/05 05:06:43.203
1,2825,47344,-6.960,6.000,,-6.000,1980/01/05 05:06:43.328
1,2833,47469,-7.070,6.000,,-6.000,1980/01/05 05:06:43.453
1,2841,47609,-7.200,6.000,,-6.000,1980/01/05 05:06:43.593
1,2849,47734,-7.290,6.000,,-6.000,1980/01/05 05:06:43.718
1,2857,47859,-7.400,6.000,,-6.000,1980/01/05 05:06:43.843
1,2865,48000,-7.510,6.000,,-6.000,1980/01/05 05:06:43.984
1,2873,48266,-7.730,6.000,,-6.000,1980/01/05 05:06:44.250
1,2881,48391,-7.840,6.000,,-6.000,1980/01/05 05:06:44.375
1,2889,48531,-7.950,6.000,,-6.000,1980/01/05 05:06:44.515
1,2897,48656,-8.060,6.000,,-6.000,1980/01/05 05:06:44.640
1,2905,48781,-8.170,6.000,,-6.000,1980/01/05 05:06:44.765
1,2913,48906,-8.270,6.000,,-6.000,1980/01/05 05:06:44.890
1,2921,49031,-8.370,6.000,,-6.000,1980/01/05 05:06:45.015
1,2929,49172,-8.500,6.000,,-6.000,1980/01/05 05:06:45.156
1,2937,49297,-8.590,6.000,,-6.000,1980/01/05 05:06:45.281
1,2945,49422,-8.710,6.100,,-6.100,1980/01/05 05:06:45.406
1,2953,49562,-8.820,6.000,,-6.000,1980/01/05 05:06:45.546
1,2961,49734,-8.960,6.000,,-6.000,1980/01/05 05:06:45.718
1,2969,49859,-9.070,6.100,,-6.100,1980/01/05 05:06:45.843
1,2977,49984,-9.150,6.100,,-6.100,1980/01/05 05:06:45.968
1,2985,50109,-9.270,6.100,,-6.100,1980/01/05 05:06:46.093
1,2993,50250,-9.390,6.100,,-6.100,1980/01/05 05:06:46.234
1,3001,50391,-9.510,6.100,,-6.100,1980/01/05 05:06:46.375
1,3009,50516,-9.610,6.100,,-6.100,1980/01/05 05:06:46.500
1,3017,50656,-9.730,6.100,,-6.100,1980/01/05 05:06:46.640
1,3025,50797,-9.840,6.100,,-6.100,1980/01/05 05:06:46.781
1,3033,50937,-9.960,6.100,,-6.100,1980/01/05 05:06:46.921
1,3041,51078,-10.070,6.100,,-6.100,1980/01/05 05:06:47.062
1,3049,51219,-10.190,6.100,,-6.100,1980/01/05 05:06:47.203
1,3057,51344,-10.300,6.100,,-6.100,1980/01/05 05:06:47.328
1,3065,51469,-10.400,6.100,,-6.100,1980/01/05 05:06:47.453
1,3073,51719,-10.610,6.100,,-6.100,1980/01/05 05:06:47.703
1,3081,51844,-10.710,6.100,,-6.100,1980/01/05 05:06:47.828
1,3089,51984,-10.820,6.100,,-6.100,1980/01/05 05:06:47.968
1,3097,52109,-10.940,6.100,,-6.100,1980/01/05 05:06:48.093
1,3105,52234,-11.030,6.100,,-6.100,1980/01/05 05:06:48.218
1,3113,52359,-11.140,6.100,,-6.100,1980/01/05 05:06:48.343
1,3121,52484,-11.240,6.100,,-6.100,1980/01/05 05:06:48.468
1,3129,52641,-11.380,6.100,,-6.100,1980/01/05 05:06:48.625
1,3137,52781,-11.500,6.100,,-6.100,1980/01/05 05:06:48.765
1,3145,52922,-11.600,6.100,,-6.100,1980/01/05 05:06:48.906
1,3153,53047,-11.720,6.200,,-6.200,1980/01/05 05:06:49.031
1,3161,53187,-11.840,6.100,,-6.100,1980/01/05 05:06:49.171
1,3169,53312,-11.940,6.200,,-6.200,1980/01/05 05:06:49.296
1,3177,53437,-12.040,6.200,,-6.200,1980/01/05 05:06:49.421
1,3185,53562,-12.130,6.100,,-6.100,1980/01/05 05:06:49.546
1,3193,53703,-12.260,6.100,,-6.100,1980/01/05 05:06:49.687
1,3201,53828,-12.360,6.200,,-6.200,1980/01/05 05:06:49.812
1,3209,53953,-12.480,6.200,,-6.200,1980/01/05 05:06:49.937
1,3217,54094,-12.580,6.100,,-6.100,1980/01/05 05:06:50.078
1,3225,54234,-12.700,6.200,,-6.200,1980/01/05 05:06:50.218
1,3233,54359,-12.800,6.200,,-6.200,1980/01/05 05:06:50.343
1,3241,54484,-12.910,6.200,,-6.200,1980/01/05 05:06:50.468
1,3249,54609,-13.010,6.200,,-6.200,1980/01/05 05:06:50.593
1,3257,54734,-13.120,6.200,,-6.200,1980/01/05 05:06:50.718
1,3265,54875,-13.230,6.200,,-6.200,1980/01/05 05:06:50.859
1,3273,55125,-13.440,6.200,,-6.200,1980/01/05 05:06:51.109
1,3281,55250,-13.550,6.200,,-6.200,1980/01/05 05:06:51.234
1,3289,55375,-13.650,6.200,,-6.200,1980/01/05 05:06:51.359
1,3297,55500,-13.750,6.200,,-6.200,1980/01/05 05:06:51.484
1,3305,55625,-13.860,6.200,,-6.200,1980/01/05 05:06:51.609
1,3313,55750,-13.970,6.200,,-6.200,1980/01/05 05:06:51.734
1,3321,55891,-14.070,6.200,,-6.200,1980/01/05 05:06:51.875
1,3329,56016,-14.180,6.200,,-6.200,1980/01/05 05:06:52.000
1,3337,56141,-14.280,6.200,,-6.200,1980/01/05 05:06:52.125
1,3345,56281,-14.400,6.200,,-6.200,1980/01/05 05:06:52.265
1,3353,56422,-14.520,6.200,,-6.200,1980/01/05 05:06:52.406
1,3361,56562,-14.630,6.200,,-6.200,1980/01/05 05:06:52.546
1,3369,56687,-14.750,6.200,,-6.200,1980/01/05 05:06:52.671
1,3377,56828,-14.860,6.200,,-6.200,1980/01/05 05:06:52.812
1,3385,56953,-14.960,6.200,,-6.200,1980/01/05 05:06:52.937
1,3393,57078,-15.070,6.200,,-6.200,1980/01/05 05:06:53.062
1,3401,57203,-15.170,6.200,,-6.200,1980/01/05 05:06:53.187
1,3409,57328,-15.270,6.200,,-6.200,1980/01/05 05:06:53.312
1,3417,57469,-15.390,6.200,,-6.200,1980/01/05 05:06:53.453
1,3425,57625,-15.510,6.200,,-6.200,1980/01/05 05:06:53.609
1,3433,57750,-15.630,6.200,,-6.200,1980/01/05 05:06:53.734
1,3441,57875,-15.740,6.200,,-6.200,1980/01/05 05:06:53.859
1,3449,58000,-15.830,6.200,,-6.200,1980/01/05 05:06:53.984
1,3457,58141,-15.950,6.200,,-6.200,1980/01/05 05:06:54.125
1,3465,58297,-16.070,6.300,,-6.300,1980/01/05 05:06:54.281
1,3473,58562,-16.310,6.300,,-6.300,1980/01/05 05:06:54.546
1,3481,58687,-16.410,6.200,,-6.200,1980/01/05 05:06:54.671
1,3489,58828,-16.510,6.300,,-6.300,1980/01/05 05:06:54.812
1,3497,58969,-16.640,6.300,,-6.300,1980/01/05 05:06:54.953
1,3505,59094,-16.740,6.300,,-6.300,1980/01/05 05:06:55.078
1,3513,59234,-16.850,6.300,,-6.300,1980/01/05 05:06:55.218
1,3521,59359,-16.960,6.300,,-6.300,1980/01/05 05:06:55.343
1,3529,59500,-17.070,6.300,,-6.300,1980/01/05 05:06:55.484
1,3537,59641,-17.200,6.300,,-6.300,1980/01/05 05:06:55.625
1,3545,59766,-17.310,6.300,,-6.300,1980/01/05 05:06:55.750
1,3553,59891,-17.410,6.300,,-6.300,1980/01/05 05:06:55.875
1,3561,60016,-17.500,6.300,,-6.300,1980/01/05 05:06:56.000
1,3569,60141,-17.610,6.300,,-6.300,1980/01/05 05:06:56.125
1,3577,60266,-17.720,6.300,,-6.300,1980/01/05 05:06:56.250
1,3585,60406,-17.830,6.300,,-6.300,1980/01/05 05:06:56.390
1,3593,60531,-17.940,6.300,,-6.300,1980/01/05 05:06:56.515
1,3601,60656,-18.040,6.300,,-6.300,1980/01/05 05:06:56.640
1,3609,60781,-18.140,6.400,,-6.400,1980/01/05 05:06:56.765
1,3617,60922,-18.260,6.400,,-6.400,1980/01/05 05:06:56.906
1,3625,61047,-18.370,6.300,,-6.300,1980/01/05 05:06:57.031
1,3633,61187,-18.490,6.400,,-6.400,1980/01/05 05:06:57.171
1,3641,61312,-18.590,6.300,,-6.300,1980/01/05 05:06:57.296
1,3649,61453,-18.710,6.400,,-6.400,1980/01/05 05:06:57.437
1,3657,61594,-18.820,6.400,,-6.400,1980/01/05 05:06:57.578
1,3665,61734,-18.940,6.400,,-6.400,1980/01/05 05:06:57.718
1,3673,62016,-19.160,6.400,,-6.400,1980/01/05 05:06:58.000
1,3681,62156,-19.290,6.400,,-6.400,1980/01/05 05:06:58.140
1,3689,62281,-19.390,6.400,,-6.400,1980/01/05 05:06:58.265
1,3697,62406,-19.500,6.400,,-6.400,1980/01/05 05:06:58.390
1,3705,62547,-19.620,6.400,,-6.400,1980/01/05 05:06:58.531
1,3713,62672,-19.710,6.400,,-6.400,1980/01/05 05:06:58.656
1,3721,62828,-19.840,6.400,,-6.400,1980/01/05 05:06:58.812
1,3729,62969,-19.960,6.400,,-6.400,1980/01/05 05:06:58.953
1,3737,63094,-20.070,6.400,,-6.400,1980/01/05 05:06:59.078
1,3745,63234,-20.180,6.400,,-6.400,1980/01/05 05:06:59.218
1,3753,63375,-20.300,6.400,,-6.400,1980/01/05 05:06:59.359
1,3761,63500,-20.410,6.400,,-6.400,1980/01/05 05:06:59.484
1,3769,63641,-20.520,6.400,,-6.400,1980/01/05 05:06:59.625
1,3777,63766,-20.630,6.400,,-6.400,1980/01/05 05:06:59.750
1,3785,63891,-20.720,6.400,,-6.400,1980/01/05 05:06:59.875
1,3793,64016,-20.830,6.400,,-6.400,1980/01/05 05:07:00.000
1,3801,64156,-20.950,6.400,,-6.400,1980/01/05 05:07:00.140
1,3809,64281,-21.050,6.400,,-6.400,1980/01/05 05:07:00.265
1,3817,64406,-21.160,6.400,,-6.400,1980/01/05 05:07:00.390
1,3825,64531,-21.260,6.400,,-6.400,1980/01/05 05:07:00.515
1,3833,64672,-21.390,6.400,,-6.400,1980/01/05 05:07:00.656
1,3841,64797,-21.490,6.400,,-6.400,1980/01/05 05:07:00.781
1,3849,64922,-21.590,6.400,,-6.400,1980/01/05 05:07:00.906
1,3857,65078,-21.710,6.500,,-6.500,1980/01/05 05:07:01.062
1,3865,65219,-21.840,6.500,,-6.500,1980/01/05 05:07:01.203
1,3873,65500,-22.050,6.500,,-6.500,1980/01/05 05:07:01.484
1,3881,65625,-22.180,6.500,,-6.500,1980/01/05 05:07:01.609
1,3889,65766,-22.280,6.500,,-6.500,1980/01/05 05:07:01.750
1,3897,65906,-22.420,6.500,,-6.500,1980/01/05 05:07:01.890
1,3905,66031,-22.510,6.500,,-6.500,1980/01/05 05:07:02.015
1,3913,66156,-22.620,6.500,,-6.500,1980/01/05 05:07:02.140
1,3921,66281,-22.720,6.500,,-6.500,1980/01/05 05:07:02.265
1,3929,66406,-22.820,6.500,,-6.500,1980/01/05 05:07:02.390
1,3937,66531,-22.930,6.500,,-6.500,1980/01/05 05:07:02.515
1,3945,66656,-23.030,6.500,,-6.500,1980/01/05 05:07:02.640
1,3953,66781,-23.130,6.500,,-6.500,1980/01/05 05:07:02.765
1,3961,66906,-23.240,6.500,,-6.500,1980/01/05 05:07:02.890
1,3969,67031,-23.340,6.500,,-6.500,1980/01/05 05:07:03.015
1,3977,67172,-23.450,6.500,,-6.500,1980/01/05 05:07:03.156
1,3985,67312,-23.590,6.500,,-6.500,1980/01/05 05:07:03.296
1,3993,67437,-23.690,6.500,,-6.500,1980/01/05 05:07:03.421
1,4001,67578,-23.800,6.500,,-6.500,1980/01/05 05:07:03.562
1,4009,67719,-23.910,6.500,,-6.500,1980/01/05 05:07:03.703
1,4017,67875,-24.040,6.500,,-6.500,1980/01/05 05:07:03.859
1,4025,68031,-24.180,6.500,,-6.500,1980/01/05 05:07:04.015
1,4033,68156,-24.280,6.500,,-6.500,1980/01/05 05:07:04.140
1,4041,68312,-24.400,6.500,,-6.500,1980/01/05 05:07:04.296
1,4049,68437,-24.510,6.500,,-6.500,1980/01/05 05:07:04.421
1,4057,68578,-24.630,6.500,,-6.500,1980/01/05 05:07:04.562
1,4065,68719,-24.740,6.600,,-6.600,1980/01/05 05:07:04.703
1,4073,69016,-24.980,6.600,,-6.600,1980/01/05 05:07:05.000
1,4081,69187,-25.140,6.600,,-6.600,1980/01/05 05:07:05.171
1,4089,69328,-25.260,6.600,,-6.600,1980/01/05 05:07:05.312
1,4097,69453,-25.360,6.600,,-6.600,1980/01/05 05:07:05.437
1,4105,69578,-25.470,6.600,,-6.600,1980/01/05 05:07:05.562
1,4113,69719,-25.570,6.600,,-6.600,1980/01/05 05:07:05.703
1,4121,69844,-25.680,6.600,,-6.600,1980/01/05 05:07:05.828
1,4129,70000,-25.800,6.600,,-6.600,1980/01/05 05:07:05.984
1,4137,70141,-25.920,6.600,,-6.600,1980/01/05 05:07:06.125
1,4145,70281,-26.040,6.600,,-6.600,1980/01/05 05:07:06.265
1,4153,70422,-26.160,6.600,,-6.600,1980/01/05 05:07:06.406
1,4161,70562,-26.280,6.600,,-6.600,1980/01/05 05:07:06.546
1,4169,70703,-26.400,6.600,,-6.600,1980/01/05 05:07:06.687
1,4177,70828,-26.510,6.600,,-6.600,1980/01/05 05:07:06.812
1,4185,70953,-26.610,6.600,,-6.600,1980/01/05 05:07:06.937
1,4193,71078,-26.710,6.600,,-6.600,1980/01/05 05:07:07.062
1,4201,71203,-26.820,6.600,,-6.600,1980/01/05 05:07:07.187
1,4209,71328,-26.920,6.600,,-6.600,1980/01/05 05:07:07.312
1,4217,71453,-27.020,6.600,,-6.600,1980/01/05 05:07:07.437
1,4225,71578,-27.130,6.600,,-6.600,1980/01/05 05:07:07.562
1,4233,71703,-27.220,6.600,,-6.600,1980/01/05 05:07:07.687
1,4241,71828,-27.340,6.600,,-6.600,1980/01/05 05:07:07.812
1,4249,71953,-27.440,6.600,,-6.600,1980/01/05 05:07:07.937
1,4257,72094,-27.550,6.600,,-6.600,1980/01/05 05:07:08.078
1,4265,72219,-27.650,6.600,,-6.600,1980/01/05 05:07:08.203
1,4273,72500,-27.790,6.700,,-6.700,1980/01/05 05:07:08.484
1,4281,72625,-28.000,6.600,,-6.600,1980/01/05 05:07:08.609
1,4289,72766,-28.110,6.600,,-6.600,1980/01/05 05:07:08.750
1,4297,72906,-28.230,6.600,,-6.600,1980/01/05 05:07:08.890
1,4305,73047,-28.340,6.700,,-6.700,1980/01/05 05:07:09.031
1,4313,73219,-28.480,6.700,,-6.700,1980/01/05 05:07:09.203
1,4321,73359,-28.600,6.700,,-6.700,1980/01/05 05:07:09.343
1,4329,73484,-28.720,6.700,,-6.700,1980/01/05 05:07:09.468
1,4337,73609,-28.810,6.700,,-6.700,1980/01/05 05:07:09.593
1,4345,73734,-28.910,6.700,,-6.700,1980/01/05 05:07:09.718
1,4353,73875,-29.030,6.700,,-6.700,1980/01/05 05:07:09.859
1,4361,74016,-29.150,6.700,,-6.700,1980/01/05 05:07:10.000
1,4369,74141,-29.250,6.700,,-6.700,1980/01/05 05:07:10.125
1,4377,74266,-29.360,6.700,,-6.700,1980/01/05 05:07:10.250
1,4385,74391,-29.460,6.700,,-6.700,1980/01/05 05:07:10.375
1,4393,74531,-29.580,6.700,,-6.700,1980/01/05 05:07:10.515
1,4401,74687,-29.710,6.700,,-6.700,1980/01/05 05:07:10.671
1,4409,74828,-29.830,6.700,,-6.700,1980/01/05 05:07:10.812
1,4417,74953,-29.940,6.700,,-6.700,1980/01/05 05:07:10.937
1,4425,75078,-30.040,6.700,,-6.700,1980/01/05 05:07:11.062
1,4433,75219,-30.150,6.700,,-6.700,1980/01/05 05:07:11.203
1,4441,75359,-30.270,6.700,,-6.700,1980/01/05 05:07:11.343
1,4449,75484,-30.370,6.700,,-6.700,1980/01/05 05:07:11.468
1,4457,75609,-30.470,6.700,,-6.700,1980/01/05 05:07:11.593
1,4465,75750,-30.600,6.700,,-6.700,1980/01/05 05:07:11.734
1,4473,76031,-30.830,6.700,,-6.700,1980/01/05 05:07:12.015
1,4481,76172,-30.940,6.700,,-6.700,1980/01/05 05:07:12.156
1,4489,76312,-31.070,6.700,,-6.700,1980/01/05 05:07:12.296
1,4497,76437,-31.170,6.700,,-6.700,1980/01/05 05:07:12.421
1,4505,76562,-31.270,6.700,,-6.700,1980/01/05 05:07:12.546
1,4513,76734,-31.410,6.700,,-6.700,1980/01/05 05:07:12.718
1,4521,76859,-31.520,6.700,,-6.700,1980/01/05 05:07:12.843
1,4529,77000,-31.630,6.700,,-6.700,1980/01/05 05:07:12.984
1,4537,77125,-31.740,6.700,,-6.700,1980/01/05 05:07:13.109
1,4545,77266,-31.860,6.700,,-6.700,1980/01/05 05:07:13.250
1,4553,77391,-31.960,6.700,,-6.700,1980/01/05 05:07:13.375
1,4561,77516,-32.060,6.700,,-6.700,1980/01/05 05:07:13.500
1,4569,77656,-32.180,6.700,,-6.700,1980/01/05 05:07:13.640
1,4577,77781,-32.280,6.700,,-6.700,1980/01/05 05:07:13.765
1,4585,77922,-32.410,6.700,,-6.700,1980/01/05 05:07:13.906
1,4593,78062,-32.520,6.700,,-6.700,1980/01/05 05:07:14.046
1,4601,78203,-32.640,6.700,,-6.700,1980/01/05 05:07:14.187
1,4609,78328,-32.740,6.700,,-6.700,1980/01/05 05:07:14.312
1,4617,78453,-32.850,6.700,,-6.700,1980/01/05 05:07:14.437
1,4625,78578,-32.950,6.700,,-6.700,1980/01/05 05:07:14.562
1,4633,78719,-33.060,6.700,,-6.700,1980/01/05 05:07:14.703
1,4641,78844,-33.170,6.700,,-6.700,1980/01/05 05:07:14.828
1,4649,78969,-33.270,6.700,,-6.700,1980/01/05 05:07:14.953
1,4657,79109,-33.400,6.700,,-6.700,1980/01/05 05:07:15.093
1,4665,79234,-33.480,6.800,,-6.800,1980/01/05 05:07:15.218
1,4673,79531,-33.590,6.700,,-6.700,1980/01/05 05:07:15.515
1,4681,79672,-33.850,6.800,,-6.800,1980/01/05 05:07:15.656
1,4689,79812,-33.970,6.700,,-6.700,1980/01/05 05:07:15.796
1,4697,79937,-34.090,6.700,,-6.700,1980/01/05 05:07:15.921
1,4705,80078,-34.200,6.700,,-6.700,1980/01/05 05:07:16.062
1,4713,80219,-34.310,6.700,,-6.700,1980/01/05 05:07:16.203
1,4721,80359,-34.440,6.700,,-6.700,1980/01/05 05:07:16.343
1,4729,80484,-34.530,6.800,,-6.800,1980/01/05 05:07:16.468
1,4737,80625,-34.650,6.700,,-6.700,1980/01/05 05:07:16.609
1,4745,80750,-34.750,6.800,,-6.800,1980/01/05 05:07:16.734
1,4753,80891,-34.860,6.700,,-6.700,1980/01/05 05:07:16.875
1,4761,81031,-34.980,6.800,,-6.800,1980/01/05 05:07:17.015
1,4769,81187,-35.120,6.800,,-6.800,1980/01/05 05:07:17.171
1,4777,81328,-35.220,6.800,,-6.800,1980/01/05 05:07:17.312
1,4785,81453,-35.350,6.700,,-6.700,1980/01/05 05:07:17.437
1,4793,81578,-35.430,6.700,,-6.700,1980/01/05 05:07:17.562
1,4801,81703,-35.550,6.800,,-6.800,1980/01/05 05:07:17.687
1,4809,81844,-35.660,6.800,,-6.800,1980/01/05 05:07:17.828
1,4817,81969,-35.760,6.800,,-6.800,1980/01/05 05:07:17.953
1,4825,82109,-35.880,6.800,,-6.800,1980/01/05 05:07:18.093
1,4833,82281,-36.020,6.800,,-6.800,1980/01/05 05:07:18.265
1,4841,82406,-36.130,6.800,,-6.800,1980/01/05 05:07:18.390
1,4849,82531,-36.240,6.700,,-6.700,1980/01/05 05:07:18.515
1,4857,82656,-36.340,6.800,,-6.800,1980/01/05 05:07:18.640
1,4865,82797,-36.440,6.700,,-6.700,1980/01/05 05:07:18.781
1,4873,83078,-36.530,6.700,,-6.700,1980/01/05 05:07:19.062
1,4881,83219,-36.800,6.700,,-6.700,1980/01/05 05:07:19.203
1,4889,83359,-36.930,6.700,,-6.700,1980/01/05 05:07:19.343
1,4897,83500,-37.050,6.700,,-6.700,1980/01/05 05:07:19.484
1,4905,83625,-37.140,6.700,,-6.700,1980/01/05 05:07:19.609
1,4913,83781,-37.270,6.700,,-6.700,1980/01/05 05:07:19.765
1,4921,83937,-37.400,6.700,,-6.700,1980/01/05 05:07:19.921
1,4929,84062,-37.520,6.700,,-6.700,1980/01/05 05:07:20.046
1,4937,84203,-37.610,6.700,,-6.700,1980/01/05 05:07:20.187
1,4945,84344,-37.740,6.700,,-6.700,1980/01/05 05:07:20.328
1,4953,84469,-37.850,6.700,,-6.700,1980/01/05 05:07:20.453
1,4961,84594,-37.950,6.700,,-6.700,1980/01/05 05:07:20.578
1,4969,84719,-38.050,6.700,,-6.700,1980/01/05 05:07:20.703
1,4977,84859,-38.170,6.700,,-6.700,1980/01/05 05:07:20.843
1,4985,84984,-38.270,6.700,,-6.700,1980/01/05 05:07:20.968
1,4993,85109,-38.370,6.700,,-6.700,1980/01/05 05:07:21.093
1,5001,85250,-38.490,6.700,,-6.700,1980/01/05 05:07:21.234
1,5009,85406,-38.620,6.700,,-6.700,1980/01/05 05:07:21.390
1,5017,85531,-38.730,6.700,,-6.700,1980/01/05 05:07:21.515
1,5025,85672,-38.840,6.700,,-6.700,1980/01/05 05:07:21.656
1,5033,85797,-38.960,6.700,,-6.700,1980/01/05 05:07:21.781
1,5041,85937,-39.080,6.700,,-6.700,1980/01/05 05:07:21.921
1,5049,86078,-39.170,6.700,,-6.700,1980/01/05 05:07:22.062
1,5057,86203,-39.290,6.700,,-6.700,1980/01/05 05:07:22.187
1,5065,86328,-39.390,6.700,,-6.700,1980/01/05 05:07:22.312
1,5073,86641,-39.650,6.700,,-6.700,1980/01/05 05:07:22.625
1,5081,86766,-39.760,6.600,,-6.600,1980/01/05 05:07:22.750
1,5089,86906,-39.880,6.700,,-6.700,1980/01/05 05:07:22.890
1,5097,87031,-39.980,6.600,,-6.600,1980/01/05 05:07:23.015
1,5105,87156,-40.080,6.600,,-6.600,1980/01/05 05:07:23.140
1,5113,87281,-40.180,6.600,,-6.600,1980/01/05 05:07:23.265
1,5121,87406,-40.290,6.600,,-6.600,1980/01/05 05:07:23.390
1,5129,87531,-40.390,6.600,,-6.600,1980/01/05 05:07:23.515
1,5137,87656,-40.490,6.600,,-6.600,1980/01/05 05:07:23.640
1,5145,87781,-40.590,6.600,,-6.600,1980/01/05 05:07:23.765
1,5153,87922,-40.710,6.600,,-6.600,1980/01/05 05:07:23.906
1,5161,88047,-40.820,6.600,,-6.600,1980/01/05 05:07:24.031
1,5169,88172,-40.920,6.700,,-6.700,1980/01/05 05:07:24.156
1,5177,88297,-41.030,6.600,,-6.600,1980/01/05 05:07:24.281
1,5185,88422,-41.140,6.600,,-6.600,1980/01/05 05:07:24.406
1,5193,88547,-41.240,6.600,,-6.600,1980/01/05 05:07:24.531
1,5201,88687,-41.350,6.600,,-6.600,1980/01/05 05:07:24.671
1,5209,88812,-41.450,6.600,,-6.600,1980/01/05 05:07:24.796
1,5217,88984,-41.600,6.600,,-6.600,1980/01/05 05:07:24.968
1,5225,89109,-41.700,6.600,,-6.600,1980/01/05 05:07:25.093
1,5233,89234,-41.810,6.600,,-6.600,1980/01/05 05:07:25.218
1,5241,89375,-41.930,6.600,,-6.600,1980/01/05 05:07:25.359
1,5249,89500,-42.040,6.600,,-6.600,1980/01/05 05:07:25.484
1,5257,89625,-42.140,6.600,,-6.600,1980/01/05 05:07:25.609
1,5265,89750,-42.250,6.600,,-6.600,1980/01/05 05:07:25.734
1,5273,90062,-42.490,6.600,,-6.600,1980/01/05 05:07:26.046
1,5281,90187,-42.600,6.600,,-6.600,1980/01/05 05:07:26.171
1,5289,90312,-42.700,6.600,,-6.600,1980/01/05 05:07:26.296
1,5297,90453,-42.830,6.600,,-6.600,1980/01/05 05:07:26.437
1,5305,90578,-42.930,6.600,,-6.600,1980/01/05 05:07:26.562
1,5313,90719,-43.040,6.600,,-6.600,1980/01/05 05:07:26.703
1,5321,90844,-43.160,6.600,,-6.600,1980/01/05 05:07:26.828
1,5329,90969,-43.250,6.500,,-6.500,1980/01/05 05:07:26.953
1,5337,91109,-43.360,6.600,,-6.600,1980/01/05 05:07:27.093
1,5345,91250,-43.480,6.500,,-6.500,1980/01/05 05:07:27.234
1,5353,91375,-43.590,6.500,,-6.500,1980/01/05 05:07:27.359
1,5361,91500,-43.700,6.500,,-6.500,1980/01/05 05:07:27.484
1,5369,91625,-43.800,6.500,,-6.500,1980/01/05 05:07:27.609
1,5377,91750,-43.910,6.500,,-6.500,1980/01/05 05:07:27.734
1,5385,91875,-44.010,6.500,,-6.500,1980/01/05 05:07:27.859
1,5393,92000,-44.100,6.500,,-6.500,1980/01/05 05:07:27.984
1,5401,92141,-44.230,6.500,,-6.500,1980/01/05 05:07:28.125
1,5409,92281,-44.350,6.400,,-6.400,1980/01/05 05:07:28.265
1,5417,92422,-44.450,6.400,,-6.400,1980/01/05 05:07:28.406
1,5425,92547,-44.570,6.400,,-6.400,1980/01/05 05:07:28.531
1,5433,92687,-44.690,6.400,,-6.400,1980/01/05 05:07:28.671
1,5441,92844,-44.810,6.400,,-6.400,1980/01/05 05:07:28.828
1,5449,93000,-44.950,6.400,,-6.400,1980/01/05 05:07:28.984
1,5457,93141,-45.050,6.300,,-6.300,1980/01/05 05:07:29.125
1,5465,93266,-45.170,6.300,,-6.300,1980/01/05 05:07:29.250
1,5473,93578,-45.420,6.300,,-6.300,1980/01/05 05:07:29.562
1,5481,93703,-45.520,6.300,,-6.300,1980/01/05 05:07:29.687
1,5489,93828,-45.630,6.300,,-6.300,1980/01/05 05:07:29.812
1,5497,93953,-45.730,6.300,,-6.300,1980/01/05 05:07:29.937
1,5505,94094,-45.850,6.200,,-6.200,1980/01/05 05:07:30.078
1,5513,94219,-45.960,6.200,,-6.200,1980/01/05 05:07:30.203
1,5521,94359,-46.060,6.200,,-6.200,1980/01/05 05:07:30.343
1,5529,94484,-46.170,6.200,,-6.200,1980/01/05 05:07:30.468
1,5537,94625,-46.290,6.200,,-6.200,1980/01/05 05:07:30.609
1,5545,94766,-46.400,6.100,,-6.100,1980/01/05 05:07:30.750
1,5553,94891,-46.500,6.200,,-6.200,1980/01/05 05:07:30.875
1,5561,95016,-46.620,6.100,,-6.100,1980/01/05 05:07:31.000
1,5569,95156,-46.730,6.100,,-6.100,1980/01/05 05:07:31.140
1,5577,95312,-46.860,6.100,,-6.100,1980/01/05 05:07:31.296
1,5585,95453,-46.980,6.100,,-6.100,1980/01/05 05:07:31.437
1,5593,95594,-47.090,6.000,,-6.000,1980/01/05 05:07:31.578
1,5601,95719,-47.200,6.000,,-6.000,1980/01/05 05:07:31.703
1,5609,95859,-47.320,6.000,,-6.000,1980/01/05 05:07:31.843
1,5617,96000,-47.440,6.000,,-6.000,1980/01/05 05:07:31.984
1,5625,96125,-47.530,6.000,,-6.000,1980/01/05 05:07:32.109
1,5633,96250,-47.640,6.000,,-6.000,1980/01/05 05:07:32.234
1,5641,96391,-47.760,5.900,,-5.900,1980/01/05 05:07:32.375
1,5649,96516,-47.870,5.900,,-5.900,1980/01/05 05:07:32.500
1,5657,96656,-47.980,5.900,,-5.900,1980/01/05 05:07:32.640
1,5665,96797,-48.100,5.900,,-5.900,1980/01/05 05:07:32.781
1,5673,97141,-48.380,5.800,,-5.800,1980/01/05 05:07:33.125
1,5681,97266,-48.480,5.800,,-5.800,1980/01/05 05:07:33.250
1,5689,97406,-48.610,5.800,,-5.800,1980/01/05 05:07:33.390
1,5697,97531,-48.710,5.800,,-5.800,1980/01/05 05:07:33.515
1,5705,97672,-48.820,5.800,,-5.800,1980/01/05 05:07:33.656
1,5713,97797,-48.930,5.800,,-5.800,1980/01/05 05:07:33.781
1,5721,97922,-49.030,5.700,,-5.700,1980/01/05 05:07:33.906
1,5729,98047,-49.140,5.800,,-5.800,1980/01/05 05:07:34.031
1,5737,98172,-49.250,5.700,,-5.700,1980/01/05 05:07:34.156
1,5745,98297,-49.340,5.700,,-5.700,1980/01/05 05:07:34.281
1,5753,98437,-49.460,5.700,,-5.700,1980/01/05 05:07:34.421
1,5761,98562,-49.570,5.700,,-5.700,1980/01/05 05:07:34.546
1,5769,98687,-49.670,5.600,,-5.600,1980/01/05 05:07:34.671
1,5777,98812,-49.770,5.600,,-5.600,1980/01/05 05:07:34.796
1,5785,98953,-49.900,5.600,,-5.600,1980/01/05 05:07:34.937
1,5793,99078,-50.000,5.600,,-5.600,1980/01/05 05:07:35.062
1,5801,99203,-50.100,5.600,,-5.600,1980/01/05 05:07:35.187
1,5809,99328,-50.200,5.500,,-5.500,1980/01/05 05:07:35.312
1,5817,99453,-50.310,5.500,,-5.500,1980/01/05 05:07:35.437
1,5825,99594,-50.430,5.500,,-5.500,1980/01/05 05:07:35.578
1,5833,99719,-50.530,5.500,,-5.500,1980/01/05 05:07:35.703
1,5841,99844,-50.630,5.500,,-5.500,1980/01/05 05:07:35.828
1,5849,99969,-50.740,5.400,,-5.400,1980/01/05 05:07:35.953
1,5857,100094,-50.840,5.400,,-5.400,1980/01/05 05:07:36.078
1,5865,100234,-50.960,5.400,,-5.400,1980/01/05 05:07:36.218
1,5873,100562,-51.220,5.300,,-5.300,1980/01/05 05:07:36.546
1,5881,100703,-51.330,5.300,,-5.300,1980/01/05 05:07:36.687
1,5889,100828,-51.440,5.300,,-5.300,1980/01/05 05:07:36.812
1,5897,100953,-51.560,5.300,,-5.300,1980/01/05 05:07:36.937
1,5905,101094,-51.670,5.300,,-5.300,1980/01/05 05:07:37.078
1,5913,101219,-51.770,5.300,,-5.300,1980/01/05 05:07:37.203
1,5921,101359,-51.890,5.200,,-5.200,1980/01/05 05:07:37.343
1,5929,101484,-52.000,5.200,,-5.200,1980/01/05 05:07:37.468
1,5937,101641,-52.110,5.200,,-5.200,1980/01/05 05:07:37.625
1,5945,101766,-52.220,5.200,,-5.200,1980/01/05 05:07:37.750
1,5953,101906,-52.350,5.200,,-5.200,1980/01/05 05:07:37.890
1,5961,102047,-52.450,5.100,,-5.100,1980/01/05 05:07:38.031
1,5969,102172,-52.560,5.100,,-5.100,1980/01/05 05:07:38.156
1,5977,102297,-52.670,5.100,,-5.100,1980/01/05 05:07:38.281
1,5985,102437,-52.790,5.100,,-5.100,1980/01/05 05:07:38.421
1,5993,102578,-52.910,5.100,,-5.100,1980/01/05 05:07:38.562
1,6001,102734,-53.040,5.000,,-5.000,1980/01/05 05:07:38.718
1,6009,102859,-53.150,5.000,,-5.000,1980/01/05 05:07:38.843
1,6017,102984,-53.240,5.000,,-5.000,1980/01/05 05:07:38.968
1,6025,103109,-53.350,5.000,,-5.000,1980/01/05 05:07:39.093
1,6033,103250,-53.470,5.000,,-5.000,1980/01/05 05:07:39.234
1,6041,103375,-53.570,5.000,,-5.000,1980/01/05 05:07:39.359
1,6049,103500,-53.680,4.900,,-4.900,1980/01/05 05:07:39.484
1,6057,103625,-53.770,4.900,,-4.900,1980/01/05 05:07:39.609
1,6065,103750,-53.870,4.900,,-4.900,1980/01/05 05:07:39.734
1,6073,104094,-54.040,4.900,,-4.900,1980/01/05 05:07:40.078
1,6081,104234,-54.280,4.800,,-4.800,1980/01/05 05:07:40.218
1,6089,104359,-54.390,4.800,,-4.800,1980/01/05 05:07:40.343
1,6097,104484,-54.490,4.800,,-4.800,1980/01/05 05:07:40.468
1,6105,104625,-54.600,4.800,,-4.800,1980/01/05 05:07:40.609
1,6113,104766,-54.720,4.800,,-4.800,1980/01/05 05:07:40.750
1,6121,104891,-54.830,4.700,,-4.700,1980/01/05 05:07:40.875
1,6129,105016,-54.930,4.700,,-4.700,1980/01/05 05:07:41.000
1,6137,105156,-55.050,4.700,,-4.700,1980/01/05 05:07:41.140
1,6145,105297,-55.170,4.700,,-4.700,1980/01/05 05:07:41.281
1,6153,105437,-55.290,4.700,,-4.700,1980/01/05 05:07:41.421
1,6161,105578,-55.400,4.600,,-4.600,1980/01/05 05:07:41.562
1,6169,105703,-55.510,4.600,,-4.600,1980/01/05 05:07:41.687
1,6177,105859,-55.630,4.600,,-4.600,1980/01/05 05:07:41.843
1,6185,105984,-55.750,4.600,,-4.600,1980/01/05 05:07:41.968
1,6193,106125,-55.860,4.500,,-4.500,1980/01/05 05:07:42.109
1,6201,106266,-55.960,4.500,,-4.500,1980/01/05 05:07:42.250
1,6209,106406,-56.090,4.500,,-4.500,1980/01/05 05:07:42.390
1,6217,106531,-56.190,4.400,,-4.400,1980/01/05 05:07:42.515
1,6225,106672,-56.310,4.500,,-4.500,1980/01/05 05:07:42.656
1,6233,106812,-56.420,4.400,,-4.400,1980/01/05 05:07:42.796
1,6241,106953,-56.550,4.400,,-4.400,1980/01/05 05:07:42.937
1,6249,107078,-56.650,4.400,,-4.400,1980/01/05 05:07:43.062
1,6257,107203,-56.750,4.400,,-4.400,1980/01/05 05:07:43.187
1,6265,107328,-56.840,4.300,,-4.300,1980/01/05 05:07:43.312
1,6273,107656,-57.130,4.300,,-4.300,1980/01/05 05:07:43.640
1,6281,107781,-57.240,4.200,,-4.200,1980/01/05 05:07:43.765
1,6289,107922,-57.350,4.200,,-4.200,1980/01/05 05:07:43.906
1,6297,108047,-57.450,4.200,,-4.200,1980/01/05 05:07:44.031
1,6305,108172,-57.570,4.100,,-4.100,1980/01/05 05:07:44.156
1,6313,108312,-57.680,4.100,,-4.100,1980/01/05 05:07:44.296
1,6321,108453,-57.790,4.100,,-4.100,1980/01/05 05:07:44.437
1,6329,108594,-57.910,4.000,,-4.000,1980/01/05 05:07:44.578
1,6337,108734,-58.010,4.000,,-4.000,1980/01/05 05:07:44.718
1,6345,108859,-58.120,4.000,,-4.000,1980/01/05 05:07:44.843
1,6353,109016,-58.260,3.900,,-3.900,1980/01/05 05:07:45.000
1,6361,109141,-58.360,3.900,,-3.900,1980/01/05 05:07:45.125
1,6369,109297,-58.490,3.900,,-3.900,1980/01/05 05:07:45.281
1,6377,109437,-58.610,3.800,,-3.800,1980/01/05 05:07:45.421
1,6385,109578,-58.740,3.800,,-3.800,1980/01/05 05:07:45.562
1,6393,109719,-58.840,3.700,,-3.700,1980/01/05 05:07:45.703
1,6401,109844,-58.950,3.700,,-3.700,1980/01/05 05:07:45.828
1,6409,109969,-59.050,3.700,,-3.700,1980/01/05 05:07:45.953
1,6417,110094,-59.150,3.600,,-3.600,1980/01/05 05:07:46.078
1,6425,110219,-59.260,3.600,,-3.600,1980/01/05 05:07:46.203
1,6433,110344,-59.360,3.600,,-3.600,1980/01/05 05:07:46.328
1,6441,110484,-59.480,3.500,,-3.500,1980/01/05 05:07:46.468
1,6449,110609,-59.580,3.500,,-3.500,1980/01/05 05:07:46.593
1,6457,110734,-59.690,3.400,,-3.400,1980/01/05 05:07:46.718
1,6465,110875,-59.820,3.400,,-3.400,1980/01/05 05:07:46.859
1,6473,111219,-60.090,3.300,,-3.300,1980/01/05 05:07:47.203
1,6481,111359,-60.200,3.200,,-3.200,1980/01/05 05:07:47.343
1,6489,111484,-60.310,3.100,,-3.100,1980/01/05 05:07:47.468
1,6497,111625,-60.430,3.000,,-3.000,1980/01/05 05:07:47.609
1,6505,111750,-60.530,0.200,,-0.200,1980/01/05 05:07:47.734
1,6513,111875,-60.650,0.100,,-0.100,1980/01/05 05:07:47.859
1,6521,112000,-60.740,0.100,,-0.100,1980/01/05 05:07:47.984
1,6529,112141,-60.840,0.100,,-0.100,1980/01/05 05:07:48.125
1,6530,112156,-60.840,0.100,,-0.100,1980/01/05 05:07:48.140