File: 1st-Semester-Fall-2021/FEC1/LDPE Tensile Strength Tests/Team 3 LDPE 40-T2.csv
Cycle,Test Point,Time (ms),Distance (mm),Up (N),Down (N),Force Data (N),Date / Time
1,1,0,27.190,0.500,,-0.500,1980/01/05 05:01:35.203
1,11,187,27.080,0.500,,-0.500,1980/01/05 05:01:35.390
1,21,359,26.960,0.600,,-0.600,1980/01/05 05:01:35.562
1,31,515,26.860,0.700,,-0.700,1980/01/05 05:01:35.718
1,41,672,26.750,0.800,,-0.800,1980/01/05 05:01:35.875
1,51,828,26.650,0.900,,-0.900,1980/01/05 05:01:36.031
1,61,1093,26.470,1.100,,-1.100,1980/01/05 05:01:36.296
1,71,1250,26.370,1.200,,-1.200,1980/01/05 05:01:36.453
1,81,1406,26.260,1.300,,-1.300,1980/01/05 05:01:36.609
1,91,1593,26.140,1.400,,-1.400,1980/01/05 05:01:36.796
1,101,1750,26.040,1.500,,-1.500,1980/01/05 05:01:36.953
1,111,1906,25.930,1.600,,-1.600,1980/01/05 05:01:37.109
1,121,2078,25.820,1.700,,-1.700,1980/01/05 05:01:37.281
1,131,2234,25.710,1.800,,-1.800,1980/01/05 05:01:37.437
1,141,2390,25.600,1.900,,-1.900,1980/01/05 05:01:37.593
1,151,2547,25.500,2.000,,-2.000,1980/01/05 05:01:37.750
1,161,2703,25.400,2.000,,-2.000,1980/01/05 05:01:37.906
1,171,2859,25.290,2.100,,-2.100,1980/01/05 05:01:38.062
1,181,3031,25.180,2.200,,-2.200,1980/01/05 05:01:38.234
1,191,3187,25.080,2.300,,-2.300,1980/01/05 05:01:38.390
1,201,3359,24.960,2.400,,-2.400,1980/01/05 05:01:38.562
1,211,3515,24.860,2.500,,-2.500,1980/01/05 05:01:38.718
1,221,3672,24.750,2.500,,-2.500,1980/01/05 05:01:38.875
1,231,3843,24.640,2.600,,-2.600,1980/01/05 05:01:39.046
1,241,4015,24.530,2.600,,-2.600,1980/01/05 05:01:39.218
1,251,4172,24.420,2.700,,-2.700,1980/01/05 05:01:39.375
1,261,4422,24.270,2.800,,-2.800,1980/01/05 05:01:39.625
1,271,4593,24.150,2.900,,-2.900,1980/01/05 05:01:39.796
1,281,4750,24.030,2.900,,-2.900,1980/01/05 05:01:39.953
1,291,4906,23.930,3.000,,-3.000,1980/01/05 05:01:40.109
1,301,5078,23.810,3.000,,-3.000,1980/01/05 05:01:40.281
1,311,5234,23.710,3.100,,-3.100,1980/01/05 05:01:40.437
1,321,5390,23.610,3.100,,-3.100,1980/01/05 05:01:40.593
1,331,5562,23.500,3.200,,-3.200,1980/01/05 05:01:40.765
1,341,5718,23.390,3.200,,-3.200,1980/01/05 05:01:40.921
1,351,5890,23.280,3.300,,-3.300,1980/01/05 05:01:41.093
1,361,6047,23.170,3.300,,-3.300,1980/01/05 05:01:41.250
1,371,6203,23.070,3.400,,-3.400,1980/01/05 05:01:41.406
1,381,6359,22.960,3.400,,-3.400,1980/01/05 05:01:41.562
1,391,6515,22.860,3.500,,-3.500,1980/01/05 05:01:41.718
1,401,6672,22.760,3.500,,-3.500,1980/01/05 05:01:41.875
1,411,6828,22.660,3.500,,-3.500,1980/01/05 05:01:42.031
1,421,6984,22.550,3.600,,-3.600,1980/01/05 05:01:42.187
1,431,7140,22.450,3.600,,-3.600,1980/01/05 05:01:42.343
1,441,7297,22.340,3.600,,-3.600,1980/01/05 05:01:42.500
1,451,7468,22.220,3.700,,-3.700,1980/01/05 05:01:42.671
1,461,7687,22.080,3.700,,-3.700,1980/01/05 05:01:42.890
1,471,7843,21.970,3.700,,-3.700,1980/01/05 05:01:43.046
1,481,8000,21.870,3.700,,-3.700,1980/01/05 05:01:43.203
1,491,8156,21.760,3.800,,-3.800,1980/01/05 05:01:43.359
1,501,8312,21.670,3.800,,-3.800,1980/01/05 05:01:43.515
1,511,8468,21.560,3.800,,-3.800,1980/01/05 05:01:43.671
1,521,8625,21.460,3.800,,-3.800,1980/01/05 05:01:43.828
1,531,8781,21.350,3.900,,-3.900,1980/01/05 05:01:43.984
1,541,8937,21.250,3.900,,-3.900,1980/01/05 05:01:44.140
1,551,9125,21.130,3.900,,-3.900,1980/01/05 05:01:44.328
1,561,9312,21.000,3.900,,-3.900,1980/01/05 05:01:44.515
1,571,9500,20.880,4.000,,-4.000,1980/01/05 05:01:44.703
1,581,9656,20.760,4.000,,-4.000,1980/01/05 05:01:44.859
1,591,9828,20.660,4.000,,-4.000,1980/01/05 05:01:45.031
1,601,10015,20.540,4.000,,-4.000,1980/01/05 05:01:45.218
1,611,10172,20.420,4.000,,-4.000,1980/01/05 05:01:45.375
1,621,10375,20.290,4.100,,-4.100,1980/01/05 05:01:45.578
1,631,10547,20.170,4.100,,-4.100,1980/01/05 05:01:45.750
1,641,10703,20.070,4.100,,-4.100,1980/01/05 05:01:45.906
1,651,10859,19.970,4.100,,-4.100,1980/01/05 05:01:46.062
1,661,11078,19.830,4.100,,-4.100,1980/01/05 05:01:46.281
1,671,11265,19.700,4.200,,-4.200,1980/01/05 05:01:46.468
1,681,11453,19.580,4.200,,-4.200,1980/01/05 05:01:46.656
1,691,11625,19.460,4.200,,-4.200,1980/01/05 05:01:46.828
1,701,11797,19.340,4.200,,-4.200,1980/01/05 05:01:47.000
1,711,11953,19.250,4.200,,-4.200,1980/01/05 05:01:47.156
1,721,12109,19.130,4.200,,-4.200,1980/01/05 05:01:47.312
1,731,12265,19.030,4.200,,-4.200,1980/01/05 05:01:47.468
1,741,12422,18.920,4.200,,-4.200,1980/01/05 05:01:47.625
1,751,12593,18.810,4.200,,-4.200,1980/01/05 05:01:47.796
1,761,12750,18.710,4.300,,-4.300,1980/01/05 05:01:47.953
1,771,12906,18.610,4.300,,-4.300,1980/01/05 05:01:48.109
1,781,13062,18.510,4.300,,-4.300,1980/01/05 05:01:48.265
1,791,13250,18.380,4.300,,-4.300,1980/01/05 05:01:48.453
1,801,13406,18.270,4.300,,-4.300,1980/01/05 05:01:48.609
1,811,13562,18.170,4.300,,-4.300,1980/01/05 05:01:48.765
1,821,13718,18.060,4.300,,-4.300,1980/01/05 05:01:48.921
1,831,13875,17.970,4.300,,-4.300,1980/01/05 05:01:49.078
1,841,14047,17.850,4.400,,-4.400,1980/01/05 05:01:49.250
1,851,14218,17.730,4.400,,-4.400,1980/01/05 05:01:49.421
1,861,14453,17.580,4.300,,-4.300,1980/01/05 05:01:49.656
1,871,14609,17.470,4.400,,-4.400,1980/01/05 05:01:49.812
1,881,14781,17.360,4.400,,-4.400,1980/01/05 05:01:49.984
1,891,14937,17.250,4.400,,-4.400,1980/01/05 05:01:50.140
1,901,15109,17.150,4.400,,-4.400,1980/01/05 05:01:50.312
1,911,15265,17.030,4.400,,-4.400,1980/01/05 05:01:50.468
1,921,15453,16.900,4.400,,-4.400,1980/01/05 05:01:50.656
1,931,15609,16.800,4.400,,-4.400,1980/01/05 05:01:50.812
1,941,15781,16.700,4.400,,-4.400,1980/01/05 05:01:50.984
1,951,15937,16.590,4.400,,-4.400,1980/01/05 05:01:51.140
1,961,16093,16.480,4.400,,-4.400,1980/01/05 05:01:51.296
1,971,16250,16.380,4.400,,-4.400,1980/01/05 05:01:51.453
1,981,16406,16.280,4.500,,-4.500,1980/01/05 05:01:51.609
1,991,16578,16.150,4.400,,-4.400,1980/01/05 05:01:51.781
1,1001,16734,16.060,4.500,,-4.500,1980/01/05 05:01:51.937
1,1011,16906,15.940,4.500,,-4.500,1980/01/05 05:01:52.109
1,1021,17078,15.820,4.500,,-4.500,1980/01/05 05:01:52.281
1,1031,17250,15.710,4.500,,-4.500,1980/01/05 05:01:52.453
1,1041,17406,15.610,4.500,,-4.500,1980/01/05 05:01:52.609
1,1051,17562,15.510,4.500,,-4.500,1980/01/05 05:01:52.765
1,1061,17781,15.360,4.500,,-4.500,1980/01/05 05:01:52.984
1,1071,17953,15.260,4.500,,-4.500,1980/01/05 05:01:53.156
1,1081,18109,15.140,4.500,,-4.500,1980/01/05 05:01:53.312
1,1091,18265,15.040,4.500,,-4.500,1980/01/05 05:01:53.468
1,1101,18422,14.940,4.500,,-4.500,1980/01/05 05:01:53.625
1,1111,18593,14.820,4.500,,-4.500,1980/01/05 05:01:53.796
1,1121,18765,14.700,4.500,,-4.500,1980/01/05 05:01:53.968
1,1131,18922,14.600,4.500,,-4.500,1980/01/05 05:01:54.125
1,1141,19093,14.490,4.600,,-4.600,1980/01/05 05:01:54.296
1,1151,19265,14.380,4.500,,-4.500,1980/01/05 05:01:54.468
1,1161,19422,14.270,4.600,,-4.600,1980/01/05 05:01:54.625
1,1171,19578,14.170,4.600,,-4.600,1980/01/05 05:01:54.781
1,1181,19750,14.050,4.600,,-4.600,1980/01/05 05:01:54.953
1,1191,19906,13.940,4.600,,-4.600,1980/01/05 05:01:55.109
1,1201,20062,13.850,4.600,,-4.600,1980/01/05 05:01:55.265
1,1211,20234,13.730,4.600,,-4.600,1980/01/05 05:01:55.437
1,1221,20390,13.620,4.600,,-4.600,1980/01/05 05:01:55.593
1,1231,20562,13.510,4.600,,-4.600,1980/01/05 05:01:55.765
1,1241,20718,13.400,4.600,,-4.600,1980/01/05 05:01:55.921
1,1251,20875,13.300,4.600,,-4.600,1980/01/05 05:01:56.078
1,1261,21125,13.140,4.600,,-4.600,1980/01/05 05:01:56.328
1,1271,21297,13.020,4.600,,-4.600,1980/01/05 05:01:56.500
1,1281,21453,12.920,4.600,,-4.600,1980/01/05 05:01:56.656
1,1291,21609,12.810,4.600,,-4.600,1980/01/05 05:01:56.812
1,1301,21765,12.710,4.600,,-4.600,1980/01/05 05:01:56.968
1,1311,21968,12.570,4.600,,-4.600,1980/01/05 05:01:57.171
1,1321,22125,12.470,4.700,,-4.700,1980/01/05 05:01:57.328
1,1331,22281,12.370,4.600,,-4.600,1980/01/05 05:01:57.484
1,1341,22437,12.260,4.700,,-4.700,1980/01/05 05:01:57.640
1,1351,22593,12.150,4.700,,-4.700,1980/01/05 05:01:57.796
1,1361,22750,12.050,4.700,,-4.700,1980/01/05 05:01:57.953
1,1371,22968,11.900,4.700,,-4.700,1980/01/05 05:01:58.171
1,1381,23125,11.800,4.700,,-4.700,1980/01/05 05:01:58.328
1,1391,23297,11.680,4.700,,-4.700,1980/01/05 05:01:58.500
1,1401,23453,11.590,4.700,,-4.700,1980/01/05 05:01:58.656
1,1411,23609,11.480,4.700,,-4.700,1980/01/05 05:01:58.812
1,1421,23765,11.380,4.700,,-4.700,1980/01/05 05:01:58.968
1,1431,23937,11.260,4.700,,-4.700,1980/01/05 05:01:59.140
1,1441,24109,11.160,4.700,,-4.700,1980/01/05 05:01:59.312
1,1451,24265,11.040,4.700,,-4.700,1980/01/05 05:01:59.468
1,1461,24500,10.890,4.700,,-4.700,1980/01/05 05:01:59.703
1,1471,24672,10.760,4.700,,-4.700,1980/01/05 05:01:59.875
1,1481,24828,10.670,4.700,,-4.700,1980/01/05 05:02:00.031
1,1491,24984,10.570,4.700,,-4.700,1980/01/05 05:02:00.187
1,1501,25156,10.450,4.700,,-4.700,1980/01/05 05:02:00.359
1,1511,25312,10.350,4.700,,-4.700,1980/01/05 05:02:00.515
1,1521,25484,10.230,4.700,,-4.700,1980/01/05 05:02:00.687
1,1531,25656,10.110,4.700,,-4.700,1980/01/05 05:02:00.859
1,1541,25812,10.010,4.800,,-4.800,1980/01/05 05:02:01.015
1,1551,25984,9.890,4.700,,-4.700,1980/01/05 05:02:01.187
1,1561,26156,9.790,4.800,,-4.800,1980/01/05 05:02:01.359
1,1571,26312,9.680,4.800,,-4.800,1980/01/05 05:02:01.515
1,1581,26484,9.580,4.800,,-4.800,1980/01/05 05:02:01.687
1,1591,26656,9.450,4.800,,-4.800,1980/01/05 05:02:01.859
1,1601,26812,9.350,4.800,,-4.800,1980/01/05 05:02:02.015
1,1611,26968,9.240,4.800,,-4.800,1980/01/05 05:02:02.171
1,1621,27125,9.140,4.800,,-4.800,1980/01/05 05:02:02.328
1,1631,27281,9.030,4.800,,-4.800,1980/01/05 05:02:02.484
1,1641,27437,8.930,4.800,,-4.800,1980/01/05 05:02:02.640
1,1651,27593,8.820,4.800,,-4.800,1980/01/05 05:02:02.796
1,1661,27843,8.660,4.800,,-4.800,1980/01/05 05:02:03.046
1,1671,28015,8.550,4.800,,-4.800,1980/01/05 05:02:03.218
1,1681,28172,8.440,4.800,,-4.800,1980/01/05 05:02:03.375
1,1691,28343,8.330,4.900,,-4.900,1980/01/05 05:02:03.546
1,1701,28500,8.230,4.800,,-4.800,1980/01/05 05:02:03.703
1,1711,28672,8.110,4.900,,-4.900,1980/01/05 05:02:03.875
1,1721,28828,8.010,4.800,,-4.800,1980/01/05 05:02:04.031
1,1731,28984,7.900,4.900,,-4.900,1980/01/05 05:02:04.187
1,1741,29156,7.780,4.900,,-4.900,1980/01/05 05:02:04.359
1,1751,29312,7.680,4.900,,-4.900,1980/01/05 05:02:04.515
1,1761,29468,7.580,4.900,,-4.900,1980/01/05 05:02:04.671
1,1771,29656,7.460,4.900,,-4.900,1980/01/05 05:02:04.859
1,1781,29828,7.340,4.900,,-4.900,1980/01/05 05:02:05.031
1,1791,29984,7.230,4.900,,-4.900,1980/01/05 05:02:05.187
1,1801,30156,7.120,4.900,,-4.900,1980/01/05 05:02:05.359
1,1811,30312,7.020,4.900,,-4.900,1980/01/05 05:02:05.515
1,1821,30484,6.900,4.900,,-4.900,1980/01/05 05:02:05.687
1,1831,30640,6.790,4.900,,-4.900,1980/01/05 05:02:05.843
1,1841,30812,6.680,4.900,,-4.900,1980/01/05 05:02:06.015
1,1851,30968,6.570,4.900,,-4.900,1980/01/05 05:02:06.171
1,1861,31234,6.400,5.000,,-5.000,1980/01/05 05:02:06.437
1,1871,31390,6.300,5.000,,-5.000,1980/01/05 05:02:06.593
1,1881,31547,6.190,5.000,,-5.000,1980/01/05 05:02:06.750
1,1891,31703,6.090,5.000,,-5.000,1980/01/05 05:02:06.906
1,1901,31859,5.990,5.000,,-5.000,1980/01/05 05:02:07.062
1,1911,32015,5.890,5.000,,-5.000,1980/01/05 05:02:07.218
1,1921,32172,5.770,5.000,,-5.000,1980/01/05 05:02:07.375
1,1931,32343,5.670,5.000,,-5.000,1980/01/05 05:02:07.546
1,1941,32515,5.550,5.000,,-5.000,1980/01/05 05:02:07.718
1,1951,32687,5.440,5.000,,-5.000,1980/01/05 05:02:07.890
1,1961,32859,5.320,5.000,,-5.000,1980/01/05 05:02:08.062
1,1971,33015,5.220,5.000,,-5.000,1980/01/05 05:02:08.218
1,1981,33172,5.120,5.000,,-5.000,1980/01/05 05:02:08.375
1,1991,33343,5.000,5.000,,-5.000,1980/01/05 05:02:08.546
1,2001,33500,4.900,5.100,,-5.100,1980/01/05 05:02:08.703
1,2011,33656,4.790,5.000,,-5.000,1980/01/05 05:02:08.859
1,2021,33828,4.670,5.000,,-5.000,1980/01/05 05:02:09.031
1,2031,34015,4.560,5.100,,-5.100,1980/01/05 05:02:09.218
1,2041,34172,4.450,5.100,,-5.100,1980/01/05 05:02:09.375
1,2051,34328,4.340,5.100,,-5.100,1980/01/05 05:02:09.531
1,2061,34578,4.180,5.100,,-5.100,1980/01/05 05:02:09.781
1,2071,34734,4.070,5.100,,-5.100,1980/01/05 05:02:09.937
1,2081,34922,3.940,5.100,,-5.100,1980/01/05 05:02:10.125
1,2091,35078,3.840,5.100,,-5.100,1980/01/05 05:02:10.281
1,2101,35234,3.730,5.100,,-5.100,1980/01/05 05:02:10.437
1,2111,35390,3.640,5.100,,-5.100,1980/01/05 05:02:10.593
1,2121,35547,3.530,5.100,,-5.100,1980/01/05 05:02:10.750
1,2131,35703,3.420,5.100,,-5.100,1980/01/05 05:02:10.906
1,2141,35859,3.320,5.100,,-5.100,1980/01/05 05:02:11.062
1,2151,36015,3.220,5.100,,-5.100,1980/01/05 05:02:11.218
1,2161,36187,3.100,5.100,,-5.100,1980/01/05 05:02:11.390
1,2171,36359,3.000,5.100,,-5.100,1980/01/05 05:02:11.562
1,2181,36515,2.880,5.200,,-5.200,1980/01/05 05:02:11.718
1,2191,36672,2.780,5.200,,-5.200,1980/01/05 05:02:11.875
1,2201,36859,2.660,5.200,,-5.200,1980/01/05 05:02:12.062
1,2211,37031,2.540,5.200,,-5.200,1980/01/05 05:02:12.234
1,2221,37203,2.440,5.200,,-5.200,1980/01/05 05:02:12.406
1,2231,37359,2.330,5.200,,-5.200,1980/01/05 05:02:12.562
1,2241,37531,2.210,5.200,,-5.200,1980/01/05 05:02:12.734
1,2251,37703,2.090,5.200,,-5.200,1980/01/05 05:02:12.906
1,2261,37968,1.910,5.200,,-5.200,1980/01/05 05:02:13.171
1,2271,38125,1.810,5.200,,-5.200,1980/01/05 05:02:13.328
1,2281,38281,1.720,5.200,,-5.200,1980/01/05 05:02:13.484
1,2291,38437,1.610,5.200,,-5.200,1980/01/05 05:02:13.640
1,2301,38609,1.500,5.200,,-5.200,1980/01/05 05:02:13.812
1,2311,38781,1.380,5.200,,-5.200,1980/01/05 05:02:13.984
1,2321,38953,1.270,5.200,,-5.200,1980/01/05 05:02:14.156
1,2331,39109,1.160,5.200,,-5.200,1980/01/05 05:02:14.312
1,2341,39265,1.060,5.200,,-5.200,1980/01/05 05:02:14.468
1,2351,39437,0.940,5.300,,-5.300,1980/01/05 05:02:14.640
1,2361,39593,0.830,5.300,,-5.300,1980/01/05 05:02:14.796
1,2371,39750,0.740,5.200,,-5.200,1980/01/05 05:02:14.953
1,2381,39906,0.630,5.300,,-5.300,1980/01/05 05:02:15.109
1,2391,40062,0.530,5.300,,-5.300,1980/01/05 05:02:15.265
1,2401,40234,0.410,5.300,,-5.300,1980/01/05 05:02:15.437
1,2411,40406,0.290,5.300,,-5.300,1980/01/05 05:02:15.609
1,2421,40562,0.190,5.300,,-5.300,1980/01/05 05:02:15.765
1,2431,40718,0.080,5.300,,-5.300,1980/01/05 05:02:15.921
1,2441,40890,-0.020,5.300,,-5.300,1980/01/05 05:02:16.093
1,2451,41047,-0.120,5.300,,-5.300,1980/01/05 05:02:16.250
1,2461,41328,-0.300,5.300,,-5.300,1980/01/05 05:02:16.531
1,2471,41484,-0.410,5.300,,-5.300,1980/01/05 05:02:16.687
1,2481,41640,-0.510,5.300,,-5.300,1980/01/05 05:02:16.843
1,2491,41797,-0.630,5.400,,-5.400,1980/01/05 05:02:17.000
1,2501,41953,-0.730,5.400,,-5.400,1980/01/05 05:02:17.156
1,2511,42109,-0.830,5.300,,-5.300,1980/01/05 05:02:17.312
1,2521,42265,-0.930,5.400,,-5.400,1980/01/05 05:02:17.468
1,2531,42422,-1.040,5.400,,-5.400,1980/01/05 05:02:17.625
1,2541,42578,-1.150,5.400,,-5.400,1980/01/05 05:02:17.781
1,2551,42734,-1.240,5.400,,-5.400,1980/01/05 05:02:17.937
1,2561,42906,-1.360,5.400,,-5.400,1980/01/05 05:02:18.109
1,2571,43062,-1.470,5.400,,-5.400,1980/01/05 05:02:18.265
1,2581,43234,-1.580,5.400,,-5.400,1980/01/05 05:02:18.437
1,2591,43406,-1.700,5.400,,-5.400,1980/01/05 05:02:18.609
1,2601,43562,-1.790,5.400,,-5.400,1980/01/05 05:02:18.765
1,2611,43734,-1.910,5.400,,-5.400,1980/01/05 05:02:18.937
1,2621,43890,-2.020,5.400,,-5.400,1980/01/05 05:02:19.093
1,2631,44062,-2.120,5.400,,-5.400,1980/01/05 05:02:19.265
1,2641,44234,-2.240,5.500,,-5.500,1980/01/05 05:02:19.437
1,2651,44390,-2.350,5.500,,-5.500,1980/01/05 05:02:19.593
1,2661,44656,-2.520,5.500,,-5.500,1980/01/05 05:02:19.859
1,2671,44812,-2.630,5.500,,-5.500,1980/01/05 05:02:20.015
1,2681,44984,-2.750,5.500,,-5.500,1980/01/05 05:02:20.187
1,2691,45140,-2.850,5.500,,-5.500,1980/01/05 05:02:20.343
1,2701,45343,-2.980,5.500,,-5.500,1980/01/05 05:02:20.546
1,2711,45531,-3.110,5.500,,-5.500,1980/01/05 05:02:20.734
1,2721,45703,-3.230,5.500,,-5.500,1980/01/05 05:02:20.906
1,2731,45859,-3.330,5.600,,-5.600,1980/01/05 05:02:21.062
1,2741,46015,-3.430,5.500,,-5.500,1980/01/05 05:02:21.218
1,2751,46172,-3.540,5.500,,-5.500,1980/01/05 05:02:21.375
1,2761,46343,-3.650,5.500,,-5.500,1980/01/05 05:02:21.546
1,2771,46531,-3.780,5.600,,-5.600,1980/01/05 05:02:21.734
1,2781,46687,-3.880,5.600,,-5.600,1980/01/05 05:02:21.890
1,2791,46843,-3.980,5.600,,-5.600,1980/01/05 05:02:22.046
1,2801,47000,-4.080,5.600,,-5.600,1980/01/05 05:02:22.203
1,2811,47156,-4.190,5.600,,-5.600,1980/01/05 05:02:22.359
1,2821,47328,-4.310,5.600,,-5.600,1980/01/05 05:02:22.531
1,2831,47500,-4.410,5.600,,-5.600,1980/01/05 05:02:22.703
1,2841,47672,-4.530,5.600,,-5.600,1980/01/05 05:02:22.875
1,2851,47828,-4.640,5.600,,-5.600,1980/01/05 05:02:23.031
1,2861,48109,-4.830,5.600,,-5.600,1980/01/05 05:02:23.312
1,2871,48265,-4.930,5.600,,-5.600,1980/01/05 05:02:23.468
1,2881,48422,-5.030,5.600,,-5.600,1980/01/05 05:02:23.625
1,2891,48593,-5.150,5.600,,-5.600,1980/01/05 05:02:23.796
1,2901,48750,-5.250,5.600,,-5.600,1980/01/05 05:02:23.953
1,2911,48906,-5.360,5.700,,-5.700,1980/01/05 05:02:24.109
1,2921,49062,-5.460,5.700,,-5.700,1980/01/05 05:02:24.265
1,2931,49250,-5.580,5.700,,-5.700,1980/01/05 05:02:24.453
1,2941,49406,-5.680,5.700,,-5.700,1980/01/05 05:02:24.609
1,2951,49593,-5.810,5.700,,-5.700,1980/01/05 05:02:24.796
1,2961,49750,-5.920,5.700,,-5.700,1980/01/05 05:02:24.953
1,2971,49922,-6.040,5.700,,-5.700,1980/01/05 05:02:25.125
1,2981,50078,-6.140,5.700,,-5.700,1980/01/05 05:02:25.281
1,2991,50250,-6.240,5.700,,-5.700,1980/01/05 05:02:25.453
1,3001,50422,-6.370,5.700,,-5.700,1980/01/05 05:02:25.625
1,3011,50578,-6.460,5.700,,-5.700,1980/01/05 05:02:25.781
1,3021,50734,-6.570,5.700,,-5.700,1980/01/05 05:02:25.937
1,3031,50906,-6.680,5.800,,-5.800,1980/01/05 05:02:26.109
1,3041,51078,-6.790,5.800,,-5.800,1980/01/05 05:02:26.281
1,3051,51234,-6.910,5.800,,-5.800,1980/01/05 05:02:26.437
1,3061,51531,-7.110,5.800,,-5.800,1980/01/05 05:02:26.734
1,3071,51687,-7.210,5.800,,-5.800,1980/01/05 05:02:26.890
1,3081,51843,-7.310,5.800,,-5.800,1980/01/05 05:02:27.046
1,3091,52015,-7.430,5.800,,-5.800,1980/01/05 05:02:27.218
1,3101,52172,-7.530,5.800,,-5.800,1980/01/05 05:02:27.375
1,3111,52343,-7.640,5.800,,-5.800,1980/01/05 05:02:27.546
1,3121,52515,-7.760,5.800,,-5.800,1980/01/05 05:02:27.718
1,3131,52672,-7.860,5.800,,-5.800,1980/01/05 05:02:27.875
1,3141,52828,-7.970,5.800,,-5.800,1980/01/05 05:02:28.031
1,3151,52984,-8.080,5.800,,-5.800,1980/01/05 05:02:28.187
1,3161,53140,-8.170,5.900,,-5.900,1980/01/05 05:02:28.343
1,3171,53297,-8.280,5.900,,-5.900,1980/01/05 05:02:28.500
1,3181,53468,-8.390,5.800,,-5.800,1980/01/05 05:02:28.671
1,3191,53625,-8.490,5.900,,-5.900,1980/01/05 05:02:28.828
1,3201,53781,-8.590,5.900,,-5.900,1980/01/05 05:02:28.984
1,3211,53937,-8.700,5.900,,-5.900,1980/01/05 05:02:29.140
1,3221,54093,-8.810,5.900,,-5.900,1980/01/05 05:02:29.296
1,3231,54281,-8.940,5.900,,-5.900,1980/01/05 05:02:29.484
1,3241,54453,-9.050,5.900,,-5.900,1980/01/05 05:02:29.656
1,3251,54609,-9.160,5.900,,-5.900,1980/01/05 05:02:29.812
1,3261,54890,-9.340,5.900,,-5.900,1980/01/05 05:02:30.093
1,3271,55047,-9.440,5.900,,-5.900,1980/01/05 05:02:30.250
1,3281,55203,-9.540,5.900,,-5.900,1980/01/05 05:02:30.406
1,3291,55359,-9.660,6.000,,-6.000,1980/01/05 05:02:30.562
1,3301,55515,-9.750,6.000,,-6.000,1980/01/05 05:02:30.718
1,3311,55703,-9.880,6.000,,-6.000,1980/01/05 05:02:30.906
1,3321,55875,-10.000,6.000,,-6.000,1980/01/05 05:02:31.078
1,3331,56047,-10.110,6.000,,-6.000,1980/01/05 05:02:31.250
1,3341,56203,-10.210,6.000,,-6.000,1980/01/05 05:02:31.406
1,3351,56359,-10.320,6.000,,-6.000,1980/01/05 05:02:31.562
1,3361,56531,-10.440,6.000,,-6.000,1980/01/05 05:02:31.734
1,3371,56687,-10.530,6.000,,-6.000,1980/01/05 05:02:31.890
1,3381,56843,-10.640,6.000,,-6.000,1980/01/05 05:02:32.046
1,3391,57015,-10.760,6.000,,-6.000,1980/01/05 05:02:32.218
1,3401,57172,-10.860,6.000,,-6.000,1980/01/05 05:02:32.375
1,3411,57328,-10.970,6.000,,-6.000,1980/01/05 05:02:32.531
1,3421,57500,-11.070,6.000,,-6.000,1980/01/05 05:02:32.703
1,3431,57656,-11.180,6.000,,-6.000,1980/01/05 05:02:32.859
1,3441,57812,-11.280,6.100,,-6.100,1980/01/05 05:02:33.015
1,3451,57968,-11.390,6.100,,-6.100,1980/01/05 05:02:33.171
1,3461,58265,-11.590,6.100,,-6.100,1980/01/05 05:02:33.468
1,3471,58422,-11.680,6.100,,-6.100,1980/01/05 05:02:33.625
1,3481,58578,-11.790,6.100,,-6.100,1980/01/05 05:02:33.781
1,3491,58734,-11.900,6.100,,-6.100,1980/01/05 05:02:33.937
1,3501,58906,-12.000,6.100,,-6.100,1980/01/05 05:02:34.109
1,3511,59062,-12.110,6.100,,-6.100,1980/01/05 05:02:34.265
1,3521,59234,-12.240,6.100,,-6.100,1980/01/05 05:02:34.437
1,3531,59406,-12.340,6.100,,-6.100,1980/01/05 05:02:34.609
1,3541,59578,-12.450,6.100,,-6.100,1980/01/05 05:02:34.781
1,3551,59734,-12.570,6.100,,-6.100,1980/01/05 05:02:34.937
1,3561,59890,-12.660,6.100,,-6.100,1980/01/05 05:02:35.093
1,3571,60047,-12.770,6.100,,-6.100,1980/01/05 05:02:35.250
1,3581,60203,-12.870,6.100,,-6.100,1980/01/05 05:02:35.406
1,3591,60375,-12.990,6.200,,-6.200,1980/01/05 05:02:35.578
1,3601,60547,-13.110,6.200,,-6.200,1980/01/05 05:02:35.750
1,3611,60703,-13.210,6.200,,-6.200,1980/01/05 05:02:35.906
1,3621,60859,-13.320,6.200,,-6.200,1980/01/05 05:02:36.062
1,3631,61031,-13.430,6.200,,-6.200,1980/01/05 05:02:36.234
1,3641,61187,-13.530,6.200,,-6.200,1980/01/05 05:02:36.390
1,3651,61359,-13.650,6.200,,-6.200,1980/01/05 05:02:36.562
1,3661,61687,-13.860,6.200,,-6.200,1980/01/05 05:02:36.890
1,3671,61843,-13.970,6.200,,-6.200,1980/01/05 05:02:37.046
1,3681,62000,-14.080,6.200,,-6.200,1980/01/05 05:02:37.203
1,3691,62156,-14.180,6.200,,-6.200,1980/01/05 05:02:37.359
1,3701,62312,-14.280,6.200,,-6.200,1980/01/05 05:02:37.515
1,3711,62468,-14.390,6.200,,-6.200,1980/01/05 05:02:37.671
1,3721,62656,-14.510,6.200,,-6.200,1980/01/05 05:02:37.859
1,3731,62828,-14.630,6.200,,-6.200,1980/01/05 05:02:38.031
1,3741,63000,-14.730,6.200,,-6.200,1980/01/05 05:02:38.203
1,3751,63156,-14.840,6.200,,-6.200,1980/01/05 05:02:38.359
1,3761,63312,-14.950,6.200,,-6.200,1980/01/05 05:02:38.515
1,3771,63468,-15.050,6.300,,-6.300,1980/01/05 05:02:38.671
1,3781,63625,-15.150,6.300,,-6.300,1980/01/05 05:02:38.828
1,3791,63812,-15.270,6.300,,-6.300,1980/01/05 05:02:39.015
1,3801,63968,-15.380,6.300,,-6.300,1980/01/05 05:02:39.171
1,3811,64125,-15.480,6.300,,-6.300,1980/01/05 05:02:39.328
1,3821,64281,-15.600,6.300,,-6.300,1980/01/05 05:02:39.484
1,3831,64468,-15.720,6.300,,-6.300,1980/01/05 05:02:39.671
1,3841,64640,-15.820,6.300,,-6.300,1980/01/05 05:02:39.843
1,3851,64797,-15.940,6.300,,-6.300,1980/01/05 05:02:40.000
1,3861,65109,-16.140,6.300,,-6.300,1980/01/05 05:02:40.312
1,3871,65281,-16.260,6.300,,-6.300,1980/01/05 05:02:40.484
1,3881,65468,-16.370,6.300,,-6.300,1980/01/05 05:02:40.671
1,3891,65625,-16.480,6.300,,-6.300,1980/01/05 05:02:40.828
1,3901,65781,-16.590,6.300,,-6.300,1980/01/05 05:02:40.984
1,3911,65937,-16.690,6.300,,-6.300,1980/01/05 05:02:41.140
1,3921,66109,-16.800,6.300,,-6.300,1980/01/05 05:02:41.312
1,3931,66265,-16.910,6.300,,-6.300,1980/01/05 05:02:41.468
1,3941,66437,-17.030,6.300,,-6.300,1980/01/05 05:02:41.640
1,3951,66593,-17.130,6.400,,-6.400,1980/01/05 05:02:41.796
1,3961,66765,-17.240,6.300,,-6.300,1980/01/05 05:02:41.968
1,3971,66937,-17.360,6.400,,-6.400,1980/01/05 05:02:42.140
1,3981,67109,-17.480,6.400,,-6.400,1980/01/05 05:02:42.312
1,3991,67265,-17.580,6.400,,-6.400,1980/01/05 05:02:42.468
1,4001,67422,-17.680,6.400,,-6.400,1980/01/05 05:02:42.625
1,4011,67578,-17.790,6.400,,-6.400,1980/01/05 05:02:42.781
1,4021,67734,-17.890,6.400,,-6.400,1980/01/05 05:02:42.937
1,4031,67906,-18.010,6.400,,-6.400,1980/01/05 05:02:43.109
1,4041,68062,-18.110,6.400,,-6.400,1980/01/05 05:02:43.265
1,4051,68250,-18.230,6.400,,-6.400,1980/01/05 05:02:43.453
1,4061,68547,-18.440,6.400,,-6.400,1980/01/05 05:02:43.750
1,4071,68703,-18.530,6.400,,-6.400,1980/01/05 05:02:43.906
1,4081,68859,-18.640,6.400,,-6.400,1980/01/05 05:02:44.062
1,4091,69015,-18.740,6.400,,-6.400,1980/01/05 05:02:44.218
1,4101,69187,-18.850,6.400,,-6.400,1980/01/05 05:02:44.390
1,4111,69343,-18.960,6.400,,-6.400,1980/01/05 05:02:44.546
1,4121,69500,-19.070,6.400,,-6.400,1980/01/05 05:02:44.703
1,4131,69656,-19.170,6.400,,-6.400,1980/01/05 05:02:44.859
1,4141,69812,-19.270,6.400,,-6.400,1980/01/05 05:02:45.015
1,4151,70015,-19.400,6.400,,-6.400,1980/01/05 05:02:45.218
1,4161,70172,-19.510,6.400,,-6.400,1980/01/05 05:02:45.375
1,4171,70328,-19.620,6.400,,-6.400,1980/01/05 05:02:45.531
1,4181,70515,-19.730,6.400,,-6.400,1980/01/05 05:02:45.718
1,4191,70703,-19.870,6.400,,-6.400,1980/01/05 05:02:45.906
1,4201,70859,-19.980,6.400,,-6.400,1980/01/05 05:02:46.062
1,4211,71015,-20.080,6.400,,-6.400,1980/01/05 05:02:46.218
1,4221,71187,-20.190,6.400,,-6.400,1980/01/05 05:02:46.390
1,4231,71343,-20.300,6.500,,-6.500,1980/01/05 05:02:46.546
1,4241,71500,-20.400,6.500,,-6.500,1980/01/05 05:02:46.703
1,4251,71656,-20.510,6.500,,-6.500,1980/01/05 05:02:46.859
1,4261,72000,-20.730,6.500,,-6.500,1980/01/05 05:02:47.203
1,4271,72156,-20.840,6.500,,-6.500,1980/01/05 05:02:47.359
1,4281,72312,-20.930,6.500,,-6.500,1980/01/05 05:02:47.515
1,4291,72468,-21.050,6.500,,-6.500,1980/01/05 05:02:47.671
1,4301,72640,-21.150,6.500,,-6.500,1980/01/05 05:02:47.843
1,4311,72797,-21.260,6.500,,-6.500,1980/01/05 05:02:48.000
1,4321,72968,-21.380,6.500,,-6.500,1980/01/05 05:02:48.171
1,4331,73125,-21.480,6.500,,-6.500,1980/01/05 05:02:48.328
1,4341,73281,-21.580,6.500,,-6.500,1980/01/05 05:02:48.484
1,4351,73468,-21.700,6.500,,-6.500,1980/01/05 05:02:48.671
1,4361,73625,-21.810,6.500,,-6.500,1980/01/05 05:02:48.828
1,4371,73797,-21.930,6.500,,-6.500,1980/01/05 05:02:49.000
1,4381,73984,-22.060,6.500,,-6.500,1980/01/05 05:02:49.187
1,4391,74140,-22.160,6.500,,-6.500,1980/01/05 05:02:49.343
1,4401,74312,-22.270,6.500,,-6.500,1980/01/05 05:02:49.515
1,4411,74484,-22.370,6.500,,-6.500,1980/01/05 05:02:49.687
1,4421,74656,-22.500,6.600,,-6.600,1980/01/05 05:02:49.859
1,4431,74828,-22.610,6.600,,-6.600,1980/01/05 05:02:50.031
1,4441,74984,-22.720,6.600,,-6.600,1980/01/05 05:02:50.187
1,4451,75156,-22.830,6.600,,-6.600,1980/01/05 05:02:50.359
1,4461,75468,-23.050,6.600,,-6.600,1980/01/05 05:02:50.671
1,4471,75625,-23.140,6.600,,-6.600,1980/01/05 05:02:50.828
1,4481,75797,-23.260,6.600,,-6.600,1980/01/05 05:02:51.000
1,4491,75968,-23.370,6.600,,-6.600,1980/01/05 05:02:51.171
1,4501,76140,-23.480,6.600,,-6.600,1980/01/05 05:02:51.343
1,4511,76297,-23.600,6.600,,-6.600,1980/01/05 05:02:51.500
1,4521,76453,-23.690,6.600,,-6.600,1980/01/05 05:02:51.656
1,4531,76625,-23.800,6.600,,-6.600,1980/01/05 05:02:51.828
1,4541,76797,-23.930,6.600,,-6.600,1980/01/05 05:02:52.000
1,4551,76953,-24.040,6.600,,-6.600,1980/01/05 05:02:52.156
1,4561,77125,-24.140,6.600,,-6.600,1980/01/05 05:02:52.328
1,4571,77281,-24.250,6.600,,-6.600,1980/01/05 05:02:52.484
1,4581,77453,-24.360,6.600,,-6.600,1980/01/05 05:02:52.656
1,4591,77625,-24.480,6.600,,-6.600,1980/01/05 05:02:52.828
1,4601,77812,-24.590,6.600,,-6.600,1980/01/05 05:02:53.015
1,4611,78000,-24.720,6.600,,-6.600,1980/01/05 05:02:53.203
1,4621,78156,-24.830,6.600,,-6.600,1980/01/05 05:02:53.359
1,4631,78312,-24.930,6.600,,-6.600,1980/01/05 05:02:53.515
1,4641,78515,-25.070,6.700,,-6.700,1980/01/05 05:02:53.718
1,4651,78672,-25.170,6.700,,-6.700,1980/01/05 05:02:53.875
1,4661,79015,-25.400,6.700,,-6.700,1980/01/05 05:02:54.218
1,4671,79172,-25.500,6.700,,-6.700,1980/01/05 05:02:54.375
1,4681,79343,-25.620,6.700,,-6.700,1980/01/05 05:02:54.546
1,4691,79515,-25.730,6.700,,-6.700,1980/01/05 05:02:54.718
1,4701,79703,-25.860,6.700,,-6.700,1980/01/05 05:02:54.906
1,4711,79859,-25.960,6.700,,-6.700,1980/01/05 05:02:55.062
1,4721,80015,-26.060,6.700,,-6.700,1980/01/05 05:02:55.218
1,4731,80218,-26.200,6.700,,-6.700,1980/01/05 05:02:55.421
1,4741,80406,-26.320,6.700,,-6.700,1980/01/05 05:02:55.609
1,4751,80562,-26.430,6.700,,-6.700,1980/01/05 05:02:55.765
1,4761,80718,-26.540,6.700,,-6.700,1980/01/05 05:02:55.921
1,4771,80890,-26.650,6.700,,-6.700,1980/01/05 05:02:56.093
1,4781,81047,-26.750,6.700,,-6.700,1980/01/05 05:02:56.250
1,4791,81218,-26.870,6.700,,-6.700,1980/01/05 05:02:56.421
1,4801,81406,-26.990,6.700,,-6.700,1980/01/05 05:02:56.609
1,4811,81562,-27.090,6.700,,-6.700,1980/01/05 05:02:56.765
1,4821,81734,-27.210,6.700,,-6.700,1980/01/05 05:02:56.937
1,4831,81906,-27.330,6.700,,-6.700,1980/01/05 05:02:57.109
1,4841,82078,-27.430,6.700,,-6.700,1980/01/05 05:02:57.281
1,4851,82265,-27.560,6.700,,-6.700,1980/01/05 05:02:57.468
1,4861,82593,-27.790,6.700,,-6.700,1980/01/05 05:02:57.796
1,4871,82765,-27.900,6.700,,-6.700,1980/01/05 05:02:57.968
1,4881,82922,-28.010,6.700,,-6.700,1980/01/05 05:02:58.125
1,4891,83109,-28.120,6.700,,-6.700,1980/01/05 05:02:58.312
1,4901,83281,-28.240,6.700,,-6.700,1980/01/05 05:02:58.484
1,4911,83453,-28.350,6.700,,-6.700,1980/01/05 05:02:58.656
1,4921,83625,-28.470,6.800,,-6.800,1980/01/05 05:02:58.828
1,4931,83797,-28.580,6.700,,-6.700,1980/01/05 05:02:59.000
1,4941,83984,-28.710,6.800,,-6.800,1980/01/05 05:02:59.187
1,4951,84140,-28.810,6.700,,-6.700,1980/01/05 05:02:59.343
1,4961,84297,-28.910,6.800,,-6.800,1980/01/05 05:02:59.500
1,4971,84453,-29.020,6.700,,-6.700,1980/01/05 05:02:59.656
1,4981,84609,-29.130,6.800,,-6.800,1980/01/05 05:02:59.812
1,4991,84765,-29.230,6.800,,-6.800,1980/01/05 05:02:59.968
1,5001,84922,-29.330,6.800,,-6.800,1980/01/05 05:03:00.125
1,5011,85078,-29.440,6.800,,-6.800,1980/01/05 05:03:00.281
1,5021,85250,-29.550,6.800,,-6.800,1980/01/05 05:03:00.453
1,5031,85406,-29.650,6.800,,-6.800,1980/01/05 05:03:00.609
1,5041,85578,-29.780,6.800,,-6.800,1980/01/05 05:03:00.781
1,5051,85734,-29.880,6.800,,-6.800,1980/01/05 05:03:00.937
1,5061,86062,-30.100,6.800,,-6.800,1980/01/05 05:03:01.265
1,5071,86218,-30.200,6.800,,-6.800,1980/01/05 05:03:01.421
1,5081,86375,-30.300,6.800,,-6.800,1980/01/05 05:03:01.578
1,5091,86531,-30.410,6.800,,-6.800,1980/01/05 05:03:01.734
1,5101,86687,-30.510,6.800,,-6.800,1980/01/05 05:03:01.890
1,5111,86859,-30.630,6.800,,-6.800,1980/01/05 05:03:02.062
1,5121,87031,-30.730,6.800,,-6.800,1980/01/05 05:03:02.234
1,5131,87187,-30.840,6.800,,-6.800,1980/01/05 05:03:02.390
1,5141,87359,-30.960,6.800,,-6.800,1980/01/05 05:03:02.562
1,5151,87515,-31.060,6.800,,-6.800,1980/01/05 05:03:02.718
1,5161,87687,-31.170,6.800,,-6.800,1980/01/05 05:03:02.890
1,5171,87859,-31.290,6.800,,-6.800,1980/01/05 05:03:03.062
1,5181,88015,-31.390,6.800,,-6.800,1980/01/05 05:03:03.218
1,5191,88172,-31.500,6.800,,-6.800,1980/01/05 05:03:03.375
1,5201,88328,-31.600,6.800,,-6.800,1980/01/05 05:03:03.531
1,5211,88484,-31.710,6.800,,-6.800,1980/01/05 05:03:03.687
1,5221,88640,-31.810,6.800,,-6.800,1980/01/05 05:03:03.843
1,5231,88812,-31.920,6.800,,-6.800,1980/01/05 05:03:04.015
1,5241,88984,-32.040,6.800,,-6.800,1980/01/05 05:03:04.187
1,5251,89140,-32.140,6.800,,-6.800,1980/01/05 05:03:04.343
1,5261,89484,-32.380,6.800,,-6.800,1980/01/05 05:03:04.687
1,5271,89656,-32.490,6.800,,-6.800,1980/01/05 05:03:04.859
1,5281,89812,-32.590,6.800,,-6.800,1980/01/05 05:03:05.015
1,5291,89968,-32.690,6.800,,-6.800,1980/01/05 05:03:05.171
1,5301,90140,-32.810,6.800,,-6.800,1980/01/05 05:03:05.343
1,5311,90297,-32.910,6.800,,-6.800,1980/01/05 05:03:05.500
1,5321,90453,-33.010,6.800,,-6.800,1980/01/05 05:03:05.656
1,5331,90609,-33.110,6.800,,-6.800,1980/01/05 05:03:05.812
1,5341,90781,-33.240,6.800,,-6.800,1980/01/05 05:03:05.984
1,5351,90953,-33.350,6.800,,-6.800,1980/01/05 05:03:06.156
1,5361,91125,-33.460,6.800,,-6.800,1980/01/05 05:03:06.328
1,5371,91297,-33.570,6.900,,-6.900,1980/01/05 05:03:06.500
1,5381,91468,-33.690,6.900,,-6.900,1980/01/05 05:03:06.671
1,5391,91640,-33.810,6.900,,-6.900,1980/01/05 05:03:06.843
1,5401,91828,-33.920,6.900,,-6.900,1980/01/05 05:03:07.031
1,5411,92000,-34.040,6.900,,-6.900,1980/01/05 05:03:07.203
1,5421,92172,-34.160,6.900,,-6.900,1980/01/05 05:03:07.375
1,5431,92328,-34.260,6.900,,-6.900,1980/01/05 05:03:07.531
1,5441,92484,-34.360,6.900,,-6.900,1980/01/05 05:03:07.687
1,5451,92640,-34.470,6.900,,-6.900,1980/01/05 05:03:07.843
1,5461,92968,-34.690,6.900,,-6.900,1980/01/05 05:03:08.171
1,5471,93140,-34.800,6.900,,-6.900,1980/01/05 05:03:08.343
1,5481,93312,-34.920,6.900,,-6.900,1980/01/05 05:03:08.515
1,5491,93500,-35.040,6.900,,-6.900,1980/01/05 05:03:08.703
1,5501,93672,-35.150,6.900,,-6.900,1980/01/05 05:03:08.875
1,5511,93843,-35.280,6.900,,-6.900,1980/01/05 05:03:09.046
1,5521,94015,-35.390,6.900,,-6.900,1980/01/05 05:03:09.218
1,5531,94172,-35.480,6.900,,-6.900,1980/01/05 05:03:09.375
1,5541,94328,-35.600,6.900,,-6.900,1980/01/05 05:03:09.531
1,5551,94484,-35.700,6.900,,-6.900,1980/01/05 05:03:09.687
1,5561,94656,-35.820,6.900,,-6.900,1980/01/05 05:03:09.859
1,5571,94812,-35.920,6.900,,-6.900,1980/01/05 05:03:10.015
1,5581,94968,-36.020,6.900,,-6.900,1980/01/05 05:03:10.171
1,5591,95140,-36.130,6.900,,-6.900,1980/01/05 05:03:10.343
1,5601,95312,-36.250,6.900,,-6.900,1980/01/05 05:03:10.515
1,5611,95468,-36.360,6.900,,-6.900,1980/01/05 05:03:10.671
1,5621,95656,-36.480,6.900,,-6.900,1980/01/05 05:03:10.859
1,5631,95812,-36.580,6.900,,-6.900,1980/01/05 05:03:11.015
1,5641,95968,-36.690,6.900,,-6.900,1980/01/05 05:03:11.171
1,5651,96125,-36.790,6.900,,-6.900,1980/01/05 05:03:11.328
1,5661,96468,-37.030,6.900,,-6.900,1980/01/05 05:03:11.671
1,5671,96640,-37.140,6.900,,-6.900,1980/01/05 05:03:11.843
1,5681,96812,-37.250,6.900,,-6.900,1980/01/05 05:03:12.015
1,5691,96984,-37.360,6.900,,-6.900,1980/01/05 05:03:12.187
1,5701,97156,-37.480,6.900,,-6.900,1980/01/05 05:03:12.359
1,5711,97312,-37.580,6.900,,-6.900,1980/01/05 05:03:12.515
1,5721,97484,-37.700,6.900,,-6.900,1980/01/05 05:03:12.687
1,5731,97640,-37.800,6.900,,-6.900,1980/01/05 05:03:12.843
1,5741,97797,-37.900,6.900,,-6.900,1980/01/05 05:03:13.000
1,5751,97953,-38.000,6.900,,-6.900,1980/01/05 05:03:13.156
1,5761,98109,-38.110,6.900,,-6.900,1980/01/05 05:03:13.312
1,5771,98265,-38.220,6.900,,-6.900,1980/01/05 05:03:13.468
1,5781,98422,-38.330,6.900,,-6.900,1980/01/05 05:03:13.625
1,5791,98593,-38.440,6.900,,-6.900,1980/01/05 05:03:13.796
1,5801,98765,-38.550,6.900,,-6.900,1980/01/05 05:03:13.968
1,5811,98922,-38.650,6.900,,-6.900,1980/01/05 05:03:14.125
1,5821,99078,-38.770,6.900,,-6.900,1980/01/05 05:03:14.281
1,5831,99250,-38.870,6.900,,-6.900,1980/01/05 05:03:14.453
1,5841,99422,-38.990,6.900,,-6.900,1980/01/05 05:03:14.625
1,5851,99593,-39.100,6.900,,-6.900,1980/01/05 05:03:14.796
1,5861,99937,-39.330,6.900,,-6.900,1980/01/05 05:03:15.140
1,5871,100093,-39.440,6.900,,-6.900,1980/01/05 05:03:15.296
1,5881,100250,-39.540,6.900,,-6.900,1980/01/05 05:03:15.453
1,5891,100406,-39.640,6.900,,-6.900,1980/01/05 05:03:15.609
1,5901,100593,-39.760,6.900,,-6.900,1980/01/05 05:03:15.796
1,5911,100750,-39.870,6.900,,-6.900,1980/01/05 05:03:15.953
1,5921,100922,-39.990,6.900,,-6.900,1980/01/05 05:03:16.125
1,5931,101125,-40.120,6.900,,-6.900,1980/01/05 05:03:16.328
1,5941,101281,-40.220,6.900,,-6.900,1980/01/05 05:03:16.484
1,5951,101437,-40.330,6.900,,-6.900,1980/01/05 05:03:16.640
1,5961,101593,-40.430,6.900,,-6.900,1980/01/05 05:03:16.796
1,5971,101750,-40.530,6.900,,-6.900,1980/01/05 05:03:16.953
1,5981,101906,-40.640,6.900,,-6.900,1980/01/05 05:03:17.109
1,5991,102062,-40.740,6.900,,-6.900,1980/01/05 05:03:17.265
1,6001,102218,-40.850,6.900,,-6.900,1980/01/05 05:03:17.421
1,6011,102375,-40.950,6.900,,-6.900,1980/01/05 05:03:17.578
1,6021,102562,-41.080,6.900,,-6.900,1980/01/05 05:03:17.765
1,6031,102718,-41.180,6.900,,-6.900,1980/01/05 05:03:17.921
1,6041,102890,-41.300,6.900,,-6.900,1980/01/05 05:03:18.093
1,6051,103047,-41.390,6.900,,-6.900,1980/01/05 05:03:18.250
1,6061,103406,-41.640,6.900,,-6.900,1980/01/05 05:03:18.609
1,6071,103562,-41.740,7.000,,-7.000,1980/01/05 05:03:18.765
1,6081,103734,-41.850,6.900,,-6.900,1980/01/05 05:03:18.937
1,6091,103906,-41.970,6.900,,-6.900,1980/01/05 05:03:19.109
1,6101,104062,-42.080,7.000,,-7.000,1980/01/05 05:03:19.265
1,6111,104218,-42.190,6.900,,-6.900,1980/01/05 05:03:19.421
1,6121,104375,-42.280,7.000,,-7.000,1980/01/05 05:03:19.578
1,6131,104547,-42.400,7.000,,-7.000,1980/01/05 05:03:19.750
1,6141,104718,-42.510,7.000,,-7.000,1980/01/05 05:03:19.921
1,6151,104890,-42.620,7.000,,-7.000,1980/01/05 05:03:20.093
1,6161,105062,-42.740,7.000,,-7.000,1980/01/05 05:03:20.265
1,6171,105218,-42.850,6.900,,-6.900,1980/01/05 05:03:20.421
1,6181,105390,-42.960,7.000,,-7.000,1980/01/05 05:03:20.593
1,6191,105578,-43.080,7.000,,-7.000,1980/01/05 05:03:20.781
1,6201,105734,-43.190,6.900,,-6.900,1980/01/05 05:03:20.937
1,6211,105890,-43.290,7.000,,-7.000,1980/01/05 05:03:21.093
1,6221,106047,-43.400,7.000,,-7.000,1980/01/05 05:03:21.250
1,6231,106218,-43.520,7.000,,-7.000,1980/01/05 05:03:21.421
1,6241,106375,-43.620,7.000,,-7.000,1980/01/05 05:03:21.578
1,6251,106531,-43.720,7.000,,-7.000,1980/01/05 05:03:21.734
1,6261,106890,-43.960,7.000,,-7.000,1980/01/05 05:03:22.093
1,6271,107047,-44.070,7.000,,-7.000,1980/01/05 05:03:22.250
1,6281,107203,-44.180,6.900,,-6.900,1980/01/05 05:03:22.406
1,6291,107375,-44.280,6.900,,-6.900,1980/01/05 05:03:22.578
1,6301,107547,-44.400,6.900,,-6.900,1980/01/05 05:03:22.750
1,6311,107703,-44.510,7.000,,-7.000,1980/01/05 05:03:22.906
1,6321,107859,-44.600,7.000,,-7.000,1980/01/05 05:03:23.062
1,6331,108015,-44.710,7.000,,-7.000,1980/01/05 05:03:23.218
1,6341,108172,-44.810,6.900,,-6.900,1980/01/05 05:03:23.375
1,6351,108328,-44.910,7.000,,-7.000,1980/01/05 05:03:23.531
1,6361,108484,-45.020,6.900,,-6.900,1980/01/05 05:03:23.687
1,6371,108656,-45.130,7.000,,-7.000,1980/01/05 05:03:23.859
1,6381,108828,-45.250,7.000,,-7.000,1980/01/05 05:03:24.031
1,6391,108984,-45.360,7.000,,-7.000,1980/01/05 05:03:24.187
1,6401,109140,-45.450,6.900,,-6.900,1980/01/05 05:03:24.343
1,6411,109297,-45.560,7.000,,-7.000,1980/01/05 05:03:24.500
1,6421,109453,-45.660,7.000,,-7.000,1980/01/05 05:03:24.656
1,6431,109609,-45.780,7.000,,-7.000,1980/01/05 05:03:24.812
1,6441,109797,-45.890,6.900,,-6.900,1980/01/05 05:03:25.000
1,6451,109953,-46.000,7.000,,-7.000,1980/01/05 05:03:25.156
1,6461,110328,-46.260,7.000,,-7.000,1980/01/05 05:03:25.531
1,6471,110484,-46.350,7.000,,-7.000,1980/01/05 05:03:25.687
1,6481,110640,-46.450,7.000,,-7.000,1980/01/05 05:03:25.843
1,6491,110797,-46.560,7.000,,-7.000,1980/01/05 05:03:26.000
1,6501,110953,-46.660,7.000,,-7.000,1980/01/05 05:03:26.156
1,6511,111125,-46.780,7.000,,-7.000,1980/01/05 05:03:26.328
1,6521,111281,-46.880,7.000,,-7.000,1980/01/05 05:03:26.484
1,6531,111453,-47.000,7.000,,-7.000,1980/01/05 05:03:26.656
1,6541,111625,-47.110,7.000,,-7.000,1980/01/05 05:03:26.828
1,6551,111797,-47.220,6.900,,-6.900,1980/01/05 05:03:27.000
1,6561,111953,-47.330,7.000,,-7.000,1980/01/05 05:03:27.156
1,6571,112109,-47.440,7.000,,-7.000,1980/01/05 05:03:27.312
1,6581,112281,-47.540,7.000,,-7.000,1980/01/05 05:03:27.484
1,6591,112437,-47.650,7.000,,-7.000,1980/01/05 05:03:27.640
1,6601,112625,-47.770,7.000,,-7.000,1980/01/05 05:03:27.828
1,6611,112781,-47.880,7.000,,-7.000,1980/01/05 05:03:27.984
1,6621,112953,-48.000,7.000,,-7.000,1980/01/05 05:03:28.156
1,6631,113109,-48.100,7.000,,-7.000,1980/01/05 05:03:28.312
1,6641,113265,-48.200,6.900,,-6.900,1980/01/05 05:03:28.468
1,6651,113437,-48.320,7.000,,-7.000,1980/01/05 05:03:28.640
1,6661,113797,-48.560,7.000,,-7.000,1980/01/05 05:03:29.000
1,6671,113953,-48.650,6.900,,-6.900,1980/01/05 05:03:29.156
1,6681,114156,-48.790,6.900,,-6.900,1980/01/05 05:03:29.359
1,6691,114312,-48.900,6.900,,-6.900,1980/01/05 05:03:29.515
1,6701,114484,-49.010,6.900,,-6.900,1980/01/05 05:03:29.687
1,6711,114656,-49.130,7.000,,-7.000,1980/01/05 05:03:29.859
1,6721,114812,-49.230,7.000,,-7.000,1980/01/05 05:03:30.015
1,6731,114968,-49.340,7.000,,-7.000,1980/01/05 05:03:30.171
1,6741,115156,-49.470,7.000,,-7.000,1980/01/05 05:03:30.359
1,6751,115328,-49.560,6.900,,-6.900,1980/01/05 05:03:30.531
1,6761,115500,-49.690,7.000,,-7.000,1980/01/05 05:03:30.703
1,6771,115672,-49.800,6.900,,-6.900,1980/01/05 05:03:30.875
1,6781,115828,-49.910,6.900,,-6.900,1980/01/05 05:03:31.031
1,6791,116000,-50.020,6.900,,-6.900,1980/01/05 05:03:31.203
1,6801,116156,-50.130,7.000,,-7.000,1980/01/05 05:03:31.359
1,6811,116312,-50.240,7.000,,-7.000,1980/01/05 05:03:31.515
1,6821,116484,-50.360,6.900,,-6.900,1980/01/05 05:03:31.687
1,6831,116656,-50.470,7.000,,-7.000,1980/01/05 05:03:31.859
1,6841,116828,-50.570,7.000,,-7.000,1980/01/05 05:03:32.031
1,6851,117015,-50.690,6.900,,-6.900,1980/01/05 05:03:32.218
1,6861,117390,-50.950,6.900,,-6.900,1980/01/05 05:03:32.593
1,6871,117547,-51.050,6.900,,-6.900,1980/01/05 05:03:32.750
1,6881,117703,-51.150,6.900,,-6.900,1980/01/05 05:03:32.906
1,6891,117875,-51.270,6.900,,-6.900,1980/01/05 05:03:33.078
1,6901,118062,-51.390,6.900,,-6.900,1980/01/05 05:03:33.265
1,6911,118250,-51.520,6.900,,-6.900,1980/01/05 05:03:33.453
1,6921,118406,-51.630,6.900,,-6.900,1980/01/05 05:03:33.609
1,6931,118562,-51.730,6.900,,-6.900,1980/01/05 05:03:33.765
1,6941,118734,-51.850,6.900,,-6.900,1980/01/05 05:03:33.937
1,6951,118906,-51.960,6.900,,-6.900,1980/01/05 05:03:34.109
1,6961,119062,-52.060,6.900,,-6.900,1980/01/05 05:03:34.265
1,6971,119234,-52.180,6.900,,-6.900,1980/01/05 05:03:34.437
1,6981,119390,-52.280,6.900,,-6.900,1980/01/05 05:03:34.593
1,6991,119547,-52.380,6.900,,-6.900,1980/01/05 05:03:34.750
1,7001,119703,-52.490,6.900,,-6.900,1980/01/05 05:03:34.906
1,7011,119859,-52.600,6.900,,-6.900,1980/01/05 05:03:35.062
1,7021,120015,-52.690,6.900,,-6.900,1980/01/05 05:03:35.218
1,7031,120172,-52.800,6.900,,-6.900,1980/01/05 05:03:35.375
1,7041,120343,-52.910,6.900,,-6.900,1980/01/05 05:03:35.546
1,7051,120500,-53.020,6.800,,-6.800,1980/01/05 05:03:35.703
1,7061,120875,-53.270,6.800,,-6.800,1980/01/05 05:03:36.078
1,7071,121031,-53.370,6.800,,-6.800,1980/01/05 05:03:36.234
1,7081,121187,-53.480,6.800,,-6.800,1980/01/05 05:03:36.390
1,7091,121343,-53.580,6.800,,-6.800,1980/01/05 05:03:36.546
1,7101,121500,-53.690,6.800,,-6.800,1980/01/05 05:03:36.703
1,7111,121656,-53.790,6.800,,-6.800,1980/01/05 05:03:36.859
1,7121,121828,-53.900,6.800,,-6.800,1980/01/05 05:03:37.031
1,7131,122000,-54.010,6.800,,-6.800,1980/01/05 05:03:37.203
1,7141,122156,-54.130,6.800,,-6.800,1980/01/05 05:03:37.359
1,7151,122328,-54.240,6.800,,-6.800,1980/01/05 05:03:37.531
1,7161,122484,-54.340,6.800,,-6.800,1980/01/05 05:03:37.687
1,7171,122640,-54.440,6.800,,-6.800,1980/01/05 05:03:37.843
1,7181,122797,-54.550,6.800,,-6.800,1980/01/05 05:03:38.000
1,7191,122953,-54.650,6.700,,-6.700,1980/01/05 05:03:38.156
1,7201,123125,-54.760,6.700,,-6.700,1980/01/05 05:03:38.328
1,7211,123328,-54.910,6.700,,-6.700,1980/01/05 05:03:38.531
1,7221,123515,-55.030,6.700,,-6.700,1980/01/05 05:03:38.718
1,7231,123687,-55.140,6.700,,-6.700,1980/01/05 05:03:38.890
1,7241,123843,-55.250,6.700,,-6.700,1980/01/05 05:03:39.046
1,7251,124031,-55.370,6.700,,-6.700,1980/01/05 05:03:39.234
1,7261,124406,-55.620,6.600,,-6.600,1980/01/05 05:03:39.609
1,7271,124562,-55.720,6.600,,-6.600,1980/01/05 05:03:39.765
1,7281,124718,-55.830,6.600,,-6.600,1980/01/05 05:03:39.921
1,7291,124875,-55.930,6.600,,-6.600,1980/01/05 05:03:40.078
1,7301,125031,-56.040,6.600,,-6.600,1980/01/05 05:03:40.234
1,7311,125203,-56.160,6.600,,-6.600,1980/01/05 05:03:40.406
1,7321,125375,-56.260,6.500,,-6.500,1980/01/05 05:03:40.578
1,7331,125531,-56.370,6.500,,-6.500,1980/01/05 05:03:40.734
1,7341,125687,-56.480,6.500,,-6.500,1980/01/05 05:03:40.890
1,7351,125859,-56.590,6.400,,-6.400,1980/01/05 05:03:41.062
1,7361,126031,-56.710,6.400,,-6.400,1980/01/05 05:03:41.234
1,7371,126218,-56.830,6.400,,-6.400,1980/01/05 05:03:41.421
1,7381,126390,-56.940,6.400,,-6.400,1980/01/05 05:03:41.593
1,7391,126562,-57.060,6.300,,-6.300,1980/01/05 05:03:41.765
1,7401,126718,-57.160,6.300,,-6.300,1980/01/05 05:03:41.921
1,7411,126890,-57.270,6.300,,-6.300,1980/01/05 05:03:42.093
1,7421,127047,-57.380,6.300,,-6.300,1980/01/05 05:03:42.250
1,7431,127218,-57.500,6.200,,-6.200,1980/01/05 05:03:42.421
1,7441,127375,-57.600,6.200,,-6.200,1980/01/05 05:03:42.578
1,7451,127547,-57.710,6.200,,-6.200,1980/01/05 05:03:42.750
1,7461,127953,-57.980,6.100,,-6.100,1980/01/05 05:03:43.156
1,7471,128109,-58.080,6.000,,-6.000,1980/01/05 05:03:43.312
1,7481,128281,-58.200,6.000,,-6.000,1980/01/05 05:03:43.484
1,7491,128437,-58.310,6.000,,-6.000,1980/01/05 05:03:43.640
1,7501,128593,-58.410,5.900,,-5.900,1980/01/05 05:03:43.796
1,7511,128781,-58.540,5.900,,-5.900,1980/01/05 05:03:43.984
1,7521,128953,-58.640,5.900,,-5.900,1980/01/05 05:03:44.156
1,7531,129125,-58.760,5.800,,-5.800,1980/01/05 05:03:44.328
1,7541,129297,-58.870,5.800,,-5.800,1980/01/05 05:03:44.500
1,7551,129468,-58.990,5.700,,-5.700,1980/01/05 05:03:44.671
1,7561,129625,-59.100,5.700,,-5.700,1980/01/05 05:03:44.828
1,7571,129797,-59.220,5.700,,-5.700,1980/01/05 05:03:45.000
1,7581,129953,-59.310,5.600,,-5.600,1980/01/05 05:03:45.156
1,7591,130109,-59.430,5.600,,-5.600,1980/01/05 05:03:45.312
1,7601,130265,-59.520,5.600,,-5.600,1980/01/05 05:03:45.468
1,7611,130437,-59.640,5.500,,-5.500,1980/01/05 05:03:45.640
1,7621,130609,-59.740,5.500,,-5.500,1980/01/05 05:03:45.812
1,7631,130781,-59.860,5.500,,-5.500,1980/01/05 05:03:45.984
1,7641,130953,-59.980,5.400,,-5.400,1980/01/05 05:03:46.156
1,7651,131109,-60.090,5.400,,-5.400,1980/01/05 05:03:46.312
1,7661,131500,-60.340,5.200,,-5.200,1980/01/05 05:03:46.703
1,7671,131656,-60.450,5.200,,-5.200,1980/01/05 05:03:46.859
1,7681,131843,-60.570,5.100,,-5.100,1980/01/05 05:03:47.046
1,7691,132000,-60.680,5.000,,-5.000,1980/01/05 05:03:47.203
1,7701,132156,-60.780,4.900,,-4.900,1980/01/05 05:03:47.359
1,7711,132328,-60.890,4.900,,-4.900,1980/01/05 05:03:47.531
1,7721,132500,-61.010,4.800,,-4.800,1980/01/05 05:03:47.703
1,7731,132656,-61.120,4.700,,-4.700,1980/01/05 05:03:47.859
1,7741,132828,-61.230,4.700,,-4.700,1980/01/05 05:03:48.031
1,7751,133000,-61.350,4.600,,-4.600,1980/01/05 05:03:48.203
1,7761,133172,-61.450,4.500,,-4.500,1980/01/05 05:03:48.375
1,7771,133375,-61.600,4.400,,-4.400,1980/01/05 05:03:48.578
1,7781,133531,-61.700,4.400,,-4.400,1980/01/05 05:03:48.734
1,7791,133687,-61.800,4.300,,-4.300,1980/01/05 05:03:48.890
1,7801,133843,-61.900,4.200,,-4.200,1980/01/05 05:03:49.046
1,7811,134000,-62.010,4.100,,-4.100,1980/01/05 05:03:49.203
1,7821,134156,-62.110,4.000,,-4.000,1980/01/05 05:03:49.359
1,7831,134312,-62.220,3.800,,-3.800,1980/01/05 05:03:49.515
1,7841,134468,-62.320,3.600,,-3.600,1980/01/05 05:03:49.671
1,7851,134625,-62.420,0.100,,-0.100,1980/01/05 05:03:49.828
1,7861,135031,-62.700,0.100,,-0.100,1980/01/05 05:03:50.234
1,7871,135203,-62.810,0.100,,-0.100,1980/01/05 05:03:50.406
1,7881,135359,-62.920,0.100,,-0.100,1980/01/05 05:03:50.562
1,7891,135531,-63.030,0.100,,-0.100,1980/01/05 05:03:50.734
1,7901,135687,-63.130,0.100,,-0.100,1980/01/05 05:03:50.890
1,7911,135859,-63.250,0.100,,-0.100,1980/01/05 05:03:51.062
1,7917,135953,-63.280,0.100,,-0.100,1980/01/05 05:03:51.156