File: 1st-Semester-Fall-2021/FEC1/LDPE Tensile Strength Tests/Team 3 LDPE 60-T2.csv
Cycle,Test Point,Time (ms),Distance (mm),Up (N),Down (N),Force Data (N),Date / Time
1,1,0,35.540,0.500,,-0.500,1980/01/05 05:09:41.968
1,13,235,35.330,0.600,,-0.600,1980/01/05 05:09:42.203
1,25,438,35.130,0.800,,-0.800,1980/01/05 05:09:42.406
1,37,657,34.900,1.000,,-1.000,1980/01/05 05:09:42.625
1,49,860,34.710,1.200,,-1.200,1980/01/05 05:09:42.828
1,61,1063,34.490,1.500,,-1.500,1980/01/05 05:09:43.031
1,73,1266,34.290,1.700,,-1.700,1980/01/05 05:09:43.234
1,85,1453,34.120,1.900,,-1.900,1980/01/05 05:09:43.421
1,97,1641,33.920,2.000,,-2.000,1980/01/05 05:09:43.609
1,109,1860,33.710,2.200,,-2.200,1980/01/05 05:09:43.828
1,121,2078,33.490,2.400,,-2.400,1980/01/05 05:09:44.046
1,133,2266,33.290,2.600,,-2.600,1980/01/05 05:09:44.234
1,145,2469,33.090,2.800,,-2.800,1980/01/05 05:09:44.437
1,157,2672,32.900,2.900,,-2.900,1980/01/05 05:09:44.640
1,169,2891,32.680,3.100,,-3.100,1980/01/05 05:09:44.859
1,181,3078,32.480,3.200,,-3.200,1980/01/05 05:09:45.046
1,193,3297,32.270,3.300,,-3.300,1980/01/05 05:09:45.265
1,205,3500,32.070,3.400,,-3.400,1980/01/05 05:09:45.468
1,217,3735,31.830,3.500,,-3.500,1980/01/05 05:09:45.703
1,229,3922,31.640,3.600,,-3.600,1980/01/05 05:09:45.890
1,241,4110,31.450,3.600,,-3.600,1980/01/05 05:09:46.078
1,253,4297,31.270,3.700,,-3.700,1980/01/05 05:09:46.265
1,265,4485,31.080,3.800,,-3.800,1980/01/05 05:09:46.453
1,277,4672,30.890,3.800,,-3.800,1980/01/05 05:09:46.640
1,289,4860,30.700,3.900,,-3.900,1980/01/05 05:09:46.828
1,301,5047,30.520,3.900,,-3.900,1980/01/05 05:09:47.015
1,313,5250,30.320,4.000,,-4.000,1980/01/05 05:09:47.218
1,325,5453,30.120,4.000,,-4.000,1980/01/05 05:09:47.421
1,337,5672,29.900,4.100,,-4.100,1980/01/05 05:09:47.640
1,349,5875,29.710,4.100,,-4.100,1980/01/05 05:09:47.843
1,361,6078,29.490,4.200,,-4.200,1980/01/05 05:09:48.046
1,373,6266,29.300,4.200,,-4.200,1980/01/05 05:09:48.234
1,385,6453,29.110,4.200,,-4.200,1980/01/05 05:09:48.421
1,397,6672,28.900,4.300,,-4.300,1980/01/05 05:09:48.640
1,409,6922,28.640,4.300,,-4.300,1980/01/05 05:09:48.890
1,421,7125,28.440,4.300,,-4.300,1980/01/05 05:09:49.093
1,433,7328,28.230,4.300,,-4.300,1980/01/05 05:09:49.296
1,445,7532,28.030,4.300,,-4.300,1980/01/05 05:09:49.500
1,457,7719,27.850,4.400,,-4.400,1980/01/05 05:09:49.687
1,469,7922,27.640,4.400,,-4.400,1980/01/05 05:09:49.890
1,481,8110,27.450,4.400,,-4.400,1980/01/05 05:09:50.078
1,493,8297,27.270,4.400,,-4.400,1980/01/05 05:09:50.265
1,505,8500,27.060,4.500,,-4.500,1980/01/05 05:09:50.468
1,517,8688,26.880,4.500,,-4.500,1980/01/05 05:09:50.656
1,529,8907,26.680,4.500,,-4.500,1980/01/05 05:09:50.875
1,541,9110,26.470,4.500,,-4.500,1980/01/05 05:09:51.078
1,553,9313,26.260,4.500,,-4.500,1980/01/05 05:09:51.281
1,565,9500,26.070,4.500,,-4.500,1980/01/05 05:09:51.468
1,577,9688,25.890,4.500,,-4.500,1980/01/05 05:09:51.656
1,589,9891,25.680,4.500,,-4.500,1980/01/05 05:09:51.859
1,601,10078,25.500,4.600,,-4.600,1980/01/05 05:09:52.046
1,613,10328,25.240,4.600,,-4.600,1980/01/05 05:09:52.296
1,625,10516,25.050,4.600,,-4.600,1980/01/05 05:09:52.484
1,637,10719,24.860,4.600,,-4.600,1980/01/05 05:09:52.687
1,649,10907,24.660,4.600,,-4.600,1980/01/05 05:09:52.875
1,661,11094,24.480,4.600,,-4.600,1980/01/05 05:09:53.062
1,673,11297,24.280,4.600,,-4.600,1980/01/05 05:09:53.265
1,685,11485,24.090,4.600,,-4.600,1980/01/05 05:09:53.453
1,697,11672,23.900,4.700,,-4.700,1980/01/05 05:09:53.640
1,709,11891,23.670,4.700,,-4.700,1980/01/05 05:09:53.859
1,721,12078,23.500,4.700,,-4.700,1980/01/05 05:09:54.046
1,733,12282,23.300,4.600,,-4.600,1980/01/05 05:09:54.250
1,745,12485,23.100,4.700,,-4.700,1980/01/05 05:09:54.453
1,757,12688,22.890,4.700,,-4.700,1980/01/05 05:09:54.656
1,769,12891,22.690,4.700,,-4.700,1980/01/05 05:09:54.859
1,781,13125,22.450,4.700,,-4.700,1980/01/05 05:09:55.093
1,793,13328,22.240,4.700,,-4.700,1980/01/05 05:09:55.296
1,805,13532,22.050,4.700,,-4.700,1980/01/05 05:09:55.500
1,817,13782,21.790,4.700,,-4.700,1980/01/05 05:09:55.750
1,829,13969,21.600,4.700,,-4.700,1980/01/05 05:09:55.937
1,841,14188,21.400,4.800,,-4.800,1980/01/05 05:09:56.156
1,853,14391,21.180,4.800,,-4.800,1980/01/05 05:09:56.359
1,865,14578,20.990,4.800,,-4.800,1980/01/05 05:09:56.546
1,877,14782,20.790,4.800,,-4.800,1980/01/05 05:09:56.750
1,889,14969,20.600,4.800,,-4.800,1980/01/05 05:09:56.937
1,901,15172,20.400,4.800,,-4.800,1980/01/05 05:09:57.140
1,913,15375,20.190,4.800,,-4.800,1980/01/05 05:09:57.343
1,925,15563,20.000,4.800,,-4.800,1980/01/05 05:09:57.531
1,937,15766,19.810,4.800,,-4.800,1980/01/05 05:09:57.734
1,949,15985,19.600,4.800,,-4.800,1980/01/05 05:09:57.953
1,961,16203,19.380,4.800,,-4.800,1980/01/05 05:09:58.171
1,973,16438,19.150,4.800,,-4.800,1980/01/05 05:09:58.406
1,985,16641,18.930,4.900,,-4.900,1980/01/05 05:09:58.609
1,997,16828,18.740,4.900,,-4.900,1980/01/05 05:09:58.796
1,1009,17110,18.460,4.900,,-4.900,1980/01/05 05:09:59.078
1,1021,17297,18.280,4.900,,-4.900,1980/01/05 05:09:59.265
1,1033,17500,18.070,4.900,,-4.900,1980/01/05 05:09:59.468
1,1045,17703,17.870,4.900,,-4.900,1980/01/05 05:09:59.671
1,1057,17891,17.690,4.900,,-4.900,1980/01/05 05:09:59.859
1,1069,18078,17.500,4.900,,-4.900,1980/01/05 05:10:00.046
1,1081,18266,17.300,4.900,,-4.900,1980/01/05 05:10:00.234
1,1093,18453,17.110,4.900,,-4.900,1980/01/05 05:10:00.421
1,1105,18641,16.940,4.900,,-4.900,1980/01/05 05:10:00.609
1,1117,18844,16.740,5.000,,-5.000,1980/01/05 05:10:00.812
1,1129,19032,16.550,5.000,,-5.000,1980/01/05 05:10:01.000
1,1141,19250,16.340,5.000,,-5.000,1980/01/05 05:10:01.218
1,1153,19438,16.140,5.000,,-5.000,1980/01/05 05:10:01.406
1,1165,19641,15.940,5.000,,-5.000,1980/01/05 05:10:01.609
1,1177,19860,15.720,5.000,,-5.000,1980/01/05 05:10:01.828
1,1189,20047,15.540,5.000,,-5.000,1980/01/05 05:10:02.015
1,1201,20250,15.320,5.000,,-5.000,1980/01/05 05:10:02.218
1,1213,20532,15.050,5.000,,-5.000,1980/01/05 05:10:02.500
1,1225,20735,14.840,5.100,,-5.100,1980/01/05 05:10:02.703
1,1237,20938,14.640,5.100,,-5.100,1980/01/05 05:10:02.906
1,1249,21125,14.440,5.100,,-5.100,1980/01/05 05:10:03.093
1,1261,21313,14.270,5.100,,-5.100,1980/01/05 05:10:03.281
1,1273,21516,14.070,5.100,,-5.100,1980/01/05 05:10:03.484
1,1285,21703,13.870,5.100,,-5.100,1980/01/05 05:10:03.671
1,1297,21891,13.690,5.100,,-5.100,1980/01/05 05:10:03.859
1,1309,22094,13.480,5.200,,-5.200,1980/01/05 05:10:04.062
1,1321,22282,13.290,5.200,,-5.200,1980/01/05 05:10:04.250
1,1333,22469,13.120,5.200,,-5.200,1980/01/05 05:10:04.437
1,1345,22672,12.910,5.200,,-5.200,1980/01/05 05:10:04.640
1,1357,22875,12.720,5.200,,-5.200,1980/01/05 05:10:04.843
1,1369,23063,12.530,5.200,,-5.200,1980/01/05 05:10:05.031
1,1381,23266,12.310,5.200,,-5.200,1980/01/05 05:10:05.234
1,1393,23469,12.110,5.200,,-5.200,1980/01/05 05:10:05.437
1,1405,23672,11.920,5.200,,-5.200,1980/01/05 05:10:05.640
1,1417,23938,11.660,5.300,,-5.300,1980/01/05 05:10:05.906
1,1429,24141,11.430,5.300,,-5.300,1980/01/05 05:10:06.109
1,1441,24328,11.260,5.300,,-5.300,1980/01/05 05:10:06.296
1,1453,24516,11.060,5.300,,-5.300,1980/01/05 05:10:06.484
1,1465,24719,10.860,5.300,,-5.300,1980/01/05 05:10:06.687
1,1477,24922,10.660,5.300,,-5.300,1980/01/05 05:10:06.890
1,1489,25125,10.460,5.400,,-5.400,1980/01/05 05:10:07.093
1,1501,25313,10.280,5.400,,-5.400,1980/01/05 05:10:07.281
1,1513,25500,10.080,5.400,,-5.400,1980/01/05 05:10:07.468
1,1525,25688,9.900,5.400,,-5.400,1980/01/05 05:10:07.656
1,1537,25891,9.690,5.400,,-5.400,1980/01/05 05:10:07.859
1,1549,26094,9.480,5.400,,-5.400,1980/01/05 05:10:08.062
1,1561,26297,9.290,5.400,,-5.400,1980/01/05 05:10:08.265
1,1573,26532,9.050,5.500,,-5.500,1980/01/05 05:10:08.500
1,1585,26750,8.830,5.500,,-5.500,1980/01/05 05:10:08.718
1,1597,26953,8.640,5.500,,-5.500,1980/01/05 05:10:08.921
1,1609,27235,8.450,5.500,,-5.500,1980/01/05 05:10:09.203
1,1621,27422,8.170,5.500,,-5.500,1980/01/05 05:10:09.390
1,1633,27625,7.950,5.500,,-5.500,1980/01/05 05:10:09.593
1,1645,27813,7.770,5.500,,-5.500,1980/01/05 05:10:09.781
1,1657,28000,7.580,5.500,,-5.500,1980/01/05 05:10:09.968
1,1669,28235,7.350,5.600,,-5.600,1980/01/05 05:10:10.203
1,1681,28438,7.140,5.600,,-5.600,1980/01/05 05:10:10.406
1,1693,28625,6.960,5.600,,-5.600,1980/01/05 05:10:10.593
1,1705,28813,6.760,5.600,,-5.600,1980/01/05 05:10:10.781
1,1717,29000,6.590,5.600,,-5.600,1980/01/05 05:10:10.968
1,1729,29188,6.400,5.600,,-5.600,1980/01/05 05:10:11.156
1,1741,29407,6.180,5.700,,-5.700,1980/01/05 05:10:11.375
1,1753,29594,5.980,5.700,,-5.700,1980/01/05 05:10:11.562
1,1765,29782,5.800,5.700,,-5.700,1980/01/05 05:10:11.750
1,1777,29969,5.630,5.700,,-5.700,1980/01/05 05:10:11.937
1,1789,30157,5.440,5.700,,-5.700,1980/01/05 05:10:12.125
1,1801,30344,5.240,5.700,,-5.700,1980/01/05 05:10:12.312
1,1813,30641,4.950,5.800,,-5.800,1980/01/05 05:10:12.609
1,1825,30828,4.770,5.800,,-5.800,1980/01/05 05:10:12.796
1,1837,31016,4.580,5.800,,-5.800,1980/01/05 05:10:12.984
1,1849,31203,4.380,5.800,,-5.800,1980/01/05 05:10:13.171
1,1861,31391,4.190,5.800,,-5.800,1980/01/05 05:10:13.359
1,1873,31594,3.990,5.800,,-5.800,1980/01/05 05:10:13.562
1,1885,31782,3.810,5.800,,-5.800,1980/01/05 05:10:13.750
1,1897,31969,3.620,5.800,,-5.800,1980/01/05 05:10:13.937
1,1909,32172,3.420,5.900,,-5.900,1980/01/05 05:10:14.140
1,1921,32375,3.210,5.900,,-5.900,1980/01/05 05:10:14.343
1,1933,32610,2.980,5.900,,-5.900,1980/01/05 05:10:14.578
1,1945,32797,2.790,5.900,,-5.900,1980/01/05 05:10:14.765
1,1957,32985,2.600,5.900,,-5.900,1980/01/05 05:10:14.953
1,1969,33219,2.380,5.900,,-5.900,1980/01/05 05:10:15.187
1,1981,33422,2.180,6.000,,-6.000,1980/01/05 05:10:15.390
1,1993,33610,1.970,6.000,,-6.000,1980/01/05 05:10:15.578
1,2005,33813,1.790,6.000,,-6.000,1980/01/05 05:10:15.781
1,2017,34141,1.450,6.000,,-6.000,1980/01/05 05:10:16.109
1,2029,34344,1.250,6.000,,-6.000,1980/01/05 05:10:16.312
1,2041,34547,1.040,6.100,,-6.100,1980/01/05 05:10:16.515
1,2053,34766,0.820,6.100,,-6.100,1980/01/05 05:10:16.734
1,2065,34953,0.630,6.100,,-6.100,1980/01/05 05:10:16.921
1,2077,35141,0.450,6.100,,-6.100,1980/01/05 05:10:17.109
1,2089,35375,0.220,6.100,,-6.100,1980/01/05 05:10:17.343
1,2101,35563,0.030,6.100,,-6.100,1980/01/05 05:10:17.531
1,2113,35766,-0.160,6.100,,-6.100,1980/01/05 05:10:17.734
1,2125,35969,-0.370,6.100,,-6.100,1980/01/05 05:10:17.937
1,2137,36172,-0.570,6.200,,-6.200,1980/01/05 05:10:18.140
1,2149,36375,-0.770,6.200,,-6.200,1980/01/05 05:10:18.343
1,2161,36578,-0.990,6.200,,-6.200,1980/01/05 05:10:18.546
1,2173,36766,-1.170,6.200,,-6.200,1980/01/05 05:10:18.734
1,2185,36953,-1.350,6.200,,-6.200,1980/01/05 05:10:18.921
1,2197,37157,-1.540,6.200,,-6.200,1980/01/05 05:10:19.125
1,2209,37516,-1.900,6.300,,-6.300,1980/01/05 05:10:19.484
1,2221,37719,-2.110,6.300,,-6.300,1980/01/05 05:10:19.687
1,2233,37922,-2.320,6.300,,-6.300,1980/01/05 05:10:19.890
1,2245,38157,-2.560,6.300,,-6.300,1980/01/05 05:10:20.125
1,2257,38375,-2.770,6.300,,-6.300,1980/01/05 05:10:20.343
1,2269,38594,-2.990,6.300,,-6.300,1980/01/05 05:10:20.562
1,2281,38782,-3.180,6.400,,-6.400,1980/01/05 05:10:20.750
1,2293,38969,-3.370,6.300,,-6.300,1980/01/05 05:10:20.937
1,2305,39188,-3.590,6.400,,-6.400,1980/01/05 05:10:21.156
1,2317,39375,-3.780,6.400,,-6.400,1980/01/05 05:10:21.343
1,2329,39563,-3.960,6.400,,-6.400,1980/01/05 05:10:21.531
1,2341,39750,-4.160,6.400,,-6.400,1980/01/05 05:10:21.718
1,2353,39938,-4.350,6.400,,-6.400,1980/01/05 05:10:21.906
1,2365,40125,-4.520,6.400,,-6.400,1980/01/05 05:10:22.093
1,2377,40328,-4.730,6.400,,-6.400,1980/01/05 05:10:22.296
1,2389,40516,-4.900,6.500,,-6.500,1980/01/05 05:10:22.484
1,2401,40703,-5.090,6.500,,-6.500,1980/01/05 05:10:22.671
1,2413,41016,-5.420,6.500,,-6.500,1980/01/05 05:10:22.984
1,2425,41219,-5.610,6.500,,-6.500,1980/01/05 05:10:23.187
1,2437,41407,-5.800,6.500,,-6.500,1980/01/05 05:10:23.375
1,2449,41610,-6.010,6.500,,-6.500,1980/01/05 05:10:23.578
1,2461,41797,-6.190,6.600,,-6.600,1980/01/05 05:10:23.765
1,2473,41985,-6.380,6.600,,-6.600,1980/01/05 05:10:23.953
1,2485,42172,-6.560,6.600,,-6.600,1980/01/05 05:10:24.140
1,2497,42375,-6.770,6.600,,-6.600,1980/01/05 05:10:24.343
1,2509,42578,-6.970,6.700,,-6.700,1980/01/05 05:10:24.546
1,2521,42766,-7.160,6.700,,-6.700,1980/01/05 05:10:24.734
1,2533,42969,-7.370,6.600,,-6.600,1980/01/05 05:10:24.937
1,2545,43172,-7.570,6.700,,-6.700,1980/01/05 05:10:25.140
1,2557,43360,-7.760,6.700,,-6.700,1980/01/05 05:10:25.328
1,2569,43563,-7.950,6.700,,-6.700,1980/01/05 05:10:25.531
1,2581,43766,-8.160,6.700,,-6.700,1980/01/05 05:10:25.734
1,2593,43953,-8.350,6.700,,-6.700,1980/01/05 05:10:25.921
1,2605,44157,-8.530,6.700,,-6.700,1980/01/05 05:10:26.125
1,2617,44453,-8.850,6.700,,-6.700,1980/01/05 05:10:26.421
1,2629,44641,-9.030,6.700,,-6.700,1980/01/05 05:10:26.609
1,2641,44860,-9.250,6.700,,-6.700,1980/01/05 05:10:26.828
1,2653,45094,-9.490,6.800,,-6.800,1980/01/05 05:10:27.062
1,2665,45282,-9.670,6.800,,-6.800,1980/01/05 05:10:27.250
1,2677,45485,-9.880,6.800,,-6.800,1980/01/05 05:10:27.453
1,2689,45672,-10.060,6.800,,-6.800,1980/01/05 05:10:27.640
1,2701,45860,-10.250,6.800,,-6.800,1980/01/05 05:10:27.828
1,2713,46047,-10.440,6.800,,-6.800,1980/01/05 05:10:28.015
1,2725,46266,-10.660,6.800,,-6.800,1980/01/05 05:10:28.234
1,2737,46453,-10.850,6.800,,-6.800,1980/01/05 05:10:28.421
1,2749,46641,-11.040,6.800,,-6.800,1980/01/05 05:10:28.609
1,2761,46860,-11.250,6.800,,-6.800,1980/01/05 05:10:28.828
1,2773,47078,-11.470,6.900,,-6.900,1980/01/05 05:10:29.046
1,2785,47282,-11.680,6.900,,-6.900,1980/01/05 05:10:29.250
1,2797,47485,-11.880,6.900,,-6.900,1980/01/05 05:10:29.453
1,2809,47782,-12.030,6.900,,-6.900,1980/01/05 05:10:29.750
1,2821,47969,-12.360,6.900,,-6.900,1980/01/05 05:10:29.937
1,2833,48157,-12.550,6.900,,-6.900,1980/01/05 05:10:30.125
1,2845,48360,-12.740,6.900,,-6.900,1980/01/05 05:10:30.328
1,2857,48563,-12.960,6.900,,-6.900,1980/01/05 05:10:30.531
1,2869,48766,-13.160,6.900,,-6.900,1980/01/05 05:10:30.734
1,2881,48985,-13.370,6.900,,-6.900,1980/01/05 05:10:30.953
1,2893,49172,-13.560,6.900,,-6.900,1980/01/05 05:10:31.140
1,2905,49375,-13.770,6.900,,-6.900,1980/01/05 05:10:31.343
1,2917,49563,-13.940,7.000,,-7.000,1980/01/05 05:10:31.531
1,2929,49750,-14.150,7.000,,-7.000,1980/01/05 05:10:31.718
1,2941,49938,-14.330,7.000,,-7.000,1980/01/05 05:10:31.906
1,2953,50141,-14.530,7.000,,-7.000,1980/01/05 05:10:32.109
1,2965,50328,-14.730,7.000,,-7.000,1980/01/05 05:10:32.296
1,2977,50532,-14.920,7.000,,-7.000,1980/01/05 05:10:32.500
1,2989,50719,-15.120,7.000,,-7.000,1980/01/05 05:10:32.687
1,3001,50922,-15.310,7.000,,-7.000,1980/01/05 05:10:32.890
1,3013,51235,-15.620,7.000,,-7.000,1980/01/05 05:10:33.203
1,3025,51453,-15.840,7.000,,-7.000,1980/01/05 05:10:33.421
1,3037,51657,-16.050,7.000,,-7.000,1980/01/05 05:10:33.625
1,3049,51844,-16.240,7.000,,-7.000,1980/01/05 05:10:33.812
1,3061,52047,-16.430,7.000,,-7.000,1980/01/05 05:10:34.015
1,3073,52266,-16.650,7.000,,-7.000,1980/01/05 05:10:34.234
1,3085,52485,-16.860,7.000,,-7.000,1980/01/05 05:10:34.453
1,3097,52703,-17.100,7.000,,-7.000,1980/01/05 05:10:34.671
1,3109,52907,-17.280,7.100,,-7.100,1980/01/05 05:10:34.875
1,3121,53157,-17.540,7.100,,-7.100,1980/01/05 05:10:35.125
1,3133,53360,-17.740,7.100,,-7.100,1980/01/05 05:10:35.328
1,3145,53547,-17.930,7.100,,-7.100,1980/01/05 05:10:35.515
1,3157,53750,-18.150,7.100,,-7.100,1980/01/05 05:10:35.718
1,3169,53953,-18.350,7.100,,-7.100,1980/01/05 05:10:35.921
1,3181,54157,-18.550,7.100,,-7.100,1980/01/05 05:10:36.125
1,3193,54360,-18.750,7.100,,-7.100,1980/01/05 05:10:36.328
1,3205,54563,-18.940,7.100,,-7.100,1980/01/05 05:10:36.531
1,3217,54875,-19.250,7.100,,-7.100,1980/01/05 05:10:36.843
1,3229,55094,-19.470,7.100,,-7.100,1980/01/05 05:10:37.062
1,3241,55282,-19.670,7.100,,-7.100,1980/01/05 05:10:37.250
1,3253,55469,-19.860,7.100,,-7.100,1980/01/05 05:10:37.437
1,3265,55657,-20.050,7.100,,-7.100,1980/01/05 05:10:37.625
1,3277,55860,-20.240,7.100,,-7.100,1980/01/05 05:10:37.828
1,3289,56063,-20.440,7.100,,-7.100,1980/01/05 05:10:38.031
1,3301,56250,-20.620,7.100,,-7.100,1980/01/05 05:10:38.218
1,3313,56438,-20.820,7.100,,-7.100,1980/01/05 05:10:38.406
1,3325,56625,-21.020,7.100,,-7.100,1980/01/05 05:10:38.593
1,3337,56828,-21.210,7.200,,-7.200,1980/01/05 05:10:38.796
1,3349,57016,-21.400,7.200,,-7.200,1980/01/05 05:10:38.984
1,3361,57219,-21.610,7.200,,-7.200,1980/01/05 05:10:39.187
1,3373,57422,-21.800,7.200,,-7.200,1980/01/05 05:10:39.390
1,3385,57641,-22.020,7.200,,-7.200,1980/01/05 05:10:39.609
1,3397,57828,-22.210,7.200,,-7.200,1980/01/05 05:10:39.796
1,3409,58157,-22.390,7.200,,-7.200,1980/01/05 05:10:40.125
1,3421,58344,-22.720,7.200,,-7.200,1980/01/05 05:10:40.312
1,3433,58532,-22.910,7.200,,-7.200,1980/01/05 05:10:40.500
1,3445,58719,-23.100,7.200,,-7.200,1980/01/05 05:10:40.687
1,3457,58907,-23.290,7.200,,-7.200,1980/01/05 05:10:40.875
1,3469,59110,-23.490,7.200,,-7.200,1980/01/05 05:10:41.078
1,3481,59313,-23.680,7.200,,-7.200,1980/01/05 05:10:41.281
1,3493,59516,-23.910,7.200,,-7.200,1980/01/05 05:10:41.484
1,3505,59703,-24.090,7.200,,-7.200,1980/01/05 05:10:41.671
1,3517,59907,-24.290,7.200,,-7.200,1980/01/05 05:10:41.875
1,3529,60094,-24.460,7.200,,-7.200,1980/01/05 05:10:42.062
1,3541,60282,-24.660,7.200,,-7.200,1980/01/05 05:10:42.250
1,3553,60469,-24.850,7.200,,-7.200,1980/01/05 05:10:42.437
1,3565,60672,-25.050,7.200,,-7.200,1980/01/05 05:10:42.640
1,3577,60875,-25.270,7.200,,-7.200,1980/01/05 05:10:42.843
1,3589,61094,-25.480,7.300,,-7.300,1980/01/05 05:10:43.062
1,3601,61297,-25.680,7.300,,-7.300,1980/01/05 05:10:43.265
1,3613,61672,-26.050,7.200,,-7.200,1980/01/05 05:10:43.640
1,3625,61860,-26.230,7.300,,-7.300,1980/01/05 05:10:43.828
1,3637,62078,-26.460,7.300,,-7.300,1980/01/05 05:10:44.046
1,3649,62266,-26.640,7.300,,-7.300,1980/01/05 05:10:44.234
1,3661,62469,-26.850,7.300,,-7.300,1980/01/05 05:10:44.437
1,3673,62672,-27.050,7.300,,-7.300,1980/01/05 05:10:44.640
1,3685,62875,-27.240,7.300,,-7.300,1980/01/05 05:10:44.843
1,3697,63078,-27.460,7.300,,-7.300,1980/01/05 05:10:45.046
1,3709,63297,-27.670,7.300,,-7.300,1980/01/05 05:10:45.265
1,3721,63485,-27.870,7.300,,-7.300,1980/01/05 05:10:45.453
1,3733,63688,-28.070,7.300,,-7.300,1980/01/05 05:10:45.656
1,3745,63875,-28.240,7.300,,-7.300,1980/01/05 05:10:45.843
1,3757,64063,-28.440,7.300,,-7.300,1980/01/05 05:10:46.031
1,3769,64250,-28.630,7.300,,-7.300,1980/01/05 05:10:46.218
1,3781,64453,-28.830,7.300,,-7.300,1980/01/05 05:10:46.421
1,3793,64641,-29.030,7.300,,-7.300,1980/01/05 05:10:46.609
1,3805,64828,-29.220,7.300,,-7.300,1980/01/05 05:10:46.796
1,3817,65172,-29.550,7.300,,-7.300,1980/01/05 05:10:47.140
1,3829,65360,-29.730,7.300,,-7.300,1980/01/05 05:10:47.328
1,3841,65563,-29.950,7.300,,-7.300,1980/01/05 05:10:47.531
1,3853,65750,-30.120,7.300,,-7.300,1980/01/05 05:10:47.718
1,3865,65953,-30.330,7.300,,-7.300,1980/01/05 05:10:47.921
1,3877,66157,-30.520,7.300,,-7.300,1980/01/05 05:10:48.125
1,3889,66344,-30.720,7.300,,-7.300,1980/01/05 05:10:48.312
1,3901,66563,-30.940,7.300,,-7.300,1980/01/05 05:10:48.531
1,3913,66750,-31.130,7.300,,-7.300,1980/01/05 05:10:48.718
1,3925,66938,-31.310,7.300,,-7.300,1980/01/05 05:10:48.906
1,3937,67125,-31.490,7.300,,-7.300,1980/01/05 05:10:49.093
1,3949,67328,-31.700,7.300,,-7.300,1980/01/05 05:10:49.296
1,3961,67516,-31.890,7.300,,-7.300,1980/01/05 05:10:49.484
1,3973,67703,-32.090,7.300,,-7.300,1980/01/05 05:10:49.671
1,3985,67891,-32.280,7.300,,-7.300,1980/01/05 05:10:49.859
1,3997,68078,-32.460,7.300,,-7.300,1980/01/05 05:10:50.046
1,4009,68453,-32.840,7.300,,-7.300,1980/01/05 05:10:50.421
1,4021,68641,-33.020,7.300,,-7.300,1980/01/05 05:10:50.609
1,4033,68828,-33.190,7.300,,-7.300,1980/01/05 05:10:50.796
1,4045,69032,-33.400,7.300,,-7.300,1980/01/05 05:10:51.000
1,4057,69235,-33.610,7.300,,-7.300,1980/01/05 05:10:51.203
1,4069,69422,-33.790,7.300,,-7.300,1980/01/05 05:10:51.390
1,4081,69641,-34.010,7.300,,-7.300,1980/01/05 05:10:51.609
1,4093,69860,-34.230,7.300,,-7.300,1980/01/05 05:10:51.828
1,4105,70047,-34.420,7.300,,-7.300,1980/01/05 05:10:52.015
1,4117,70250,-34.610,7.300,,-7.300,1980/01/05 05:10:52.218
1,4129,70453,-34.830,7.300,,-7.300,1980/01/05 05:10:52.421
1,4141,70657,-35.030,7.300,,-7.300,1980/01/05 05:10:52.625
1,4153,70860,-35.230,7.300,,-7.300,1980/01/05 05:10:52.828
1,4165,71047,-35.410,7.300,,-7.300,1980/01/05 05:10:53.015
1,4177,71235,-35.610,7.300,,-7.300,1980/01/05 05:10:53.203
1,4189,71422,-35.790,7.300,,-7.300,1980/01/05 05:10:53.390
1,4201,71610,-35.980,7.300,,-7.300,1980/01/05 05:10:53.578
1,4213,71985,-36.360,7.300,,-7.300,1980/01/05 05:10:53.953
1,4225,72172,-36.540,7.300,,-7.300,1980/01/05 05:10:54.140
1,4237,72422,-36.790,7.300,,-7.300,1980/01/05 05:10:54.390
1,4249,72610,-36.970,7.300,,-7.300,1980/01/05 05:10:54.578
1,4261,72813,-37.190,7.300,,-7.300,1980/01/05 05:10:54.781
1,4273,73016,-37.380,7.300,,-7.300,1980/01/05 05:10:54.984
1,4285,73219,-37.590,7.300,,-7.300,1980/01/05 05:10:55.187
1,4297,73407,-37.780,7.300,,-7.300,1980/01/05 05:10:55.375
1,4309,73610,-37.980,7.300,,-7.300,1980/01/05 05:10:55.578
1,4321,73797,-38.160,7.300,,-7.300,1980/01/05 05:10:55.765
1,4333,74000,-38.370,7.300,,-7.300,1980/01/05 05:10:55.968
1,4345,74188,-38.550,7.300,,-7.300,1980/01/05 05:10:56.156
1,4357,74391,-38.760,7.300,,-7.300,1980/01/05 05:10:56.359
1,4369,74578,-38.960,7.300,,-7.300,1980/01/05 05:10:56.546
1,4381,74766,-39.140,7.300,,-7.300,1980/01/05 05:10:56.734
1,4393,74985,-39.350,7.300,,-7.300,1980/01/05 05:10:56.953
1,4405,75172,-39.540,7.300,,-7.300,1980/01/05 05:10:57.140
1,4417,75547,-39.910,7.300,,-7.300,1980/01/05 05:10:57.515
1,4429,75735,-40.100,7.300,,-7.300,1980/01/05 05:10:57.703
1,4441,75953,-40.310,7.300,,-7.300,1980/01/05 05:10:57.921
1,4453,76172,-40.530,7.300,,-7.300,1980/01/05 05:10:58.140
1,4465,76360,-40.720,7.300,,-7.300,1980/01/05 05:10:58.328
1,4477,76563,-40.930,7.300,,-7.300,1980/01/05 05:10:58.531
1,4489,76766,-41.130,7.300,,-7.300,1980/01/05 05:10:58.734
1,4501,77000,-41.350,7.300,,-7.300,1980/01/05 05:10:58.968
1,4513,77219,-41.590,7.300,,-7.300,1980/01/05 05:10:59.187
1,4525,77422,-41.780,7.300,,-7.300,1980/01/05 05:10:59.390
1,4537,77657,-42.010,7.300,,-7.300,1980/01/05 05:10:59.625
1,4549,77860,-42.220,7.300,,-7.300,1980/01/05 05:10:59.828
1,4561,78047,-42.410,7.300,,-7.300,1980/01/05 05:11:00.015
1,4573,78250,-42.610,7.300,,-7.300,1980/01/05 05:11:00.218
1,4585,78453,-42.830,7.300,,-7.300,1980/01/05 05:11:00.421
1,4597,78657,-43.030,7.300,,-7.300,1980/01/05 05:11:00.625
1,4609,79047,-43.240,7.300,,-7.300,1980/01/05 05:11:01.015
1,4621,79266,-43.620,7.300,,-7.300,1980/01/05 05:11:01.234
1,4633,79453,-43.820,7.300,,-7.300,1980/01/05 05:11:01.421
1,4645,79657,-44.010,7.300,,-7.300,1980/01/05 05:11:01.625
1,4657,79875,-44.230,7.300,,-7.300,1980/01/05 05:11:01.843
1,4669,80078,-44.440,7.300,,-7.300,1980/01/05 05:11:02.046
1,4681,80266,-44.620,7.300,,-7.300,1980/01/05 05:11:02.234
1,4693,80485,-44.850,7.300,,-7.300,1980/01/05 05:11:02.453
1,4705,80672,-45.030,7.300,,-7.300,1980/01/05 05:11:02.640
1,4717,80891,-45.250,7.300,,-7.300,1980/01/05 05:11:02.859
1,4729,81094,-45.470,7.300,,-7.300,1980/01/05 05:11:03.062
1,4741,81297,-45.660,7.300,,-7.300,1980/01/05 05:11:03.265
1,4753,81516,-45.880,7.300,,-7.300,1980/01/05 05:11:03.484
1,4765,81719,-46.090,7.300,,-7.300,1980/01/05 05:11:03.687
1,4777,81907,-46.270,7.300,,-7.300,1980/01/05 05:11:03.875
1,4789,82110,-46.480,7.300,,-7.300,1980/01/05 05:11:04.078
1,4801,82297,-46.670,7.300,,-7.300,1980/01/05 05:11:04.265
1,4813,82688,-47.060,7.300,,-7.300,1980/01/05 05:11:04.656
1,4825,82875,-47.230,7.300,,-7.300,1980/01/05 05:11:04.843
1,4837,83078,-47.430,7.300,,-7.300,1980/01/05 05:11:05.046
1,4849,83297,-47.660,7.300,,-7.300,1980/01/05 05:11:05.265
1,4861,83485,-47.840,7.300,,-7.300,1980/01/05 05:11:05.453
1,4873,83672,-48.030,7.300,,-7.300,1980/01/05 05:11:05.640
1,4885,83860,-48.220,7.300,,-7.300,1980/01/05 05:11:05.828
1,4897,84047,-48.410,7.300,,-7.300,1980/01/05 05:11:06.015
1,4909,84235,-48.590,7.300,,-7.300,1980/01/05 05:11:06.203
1,4921,84438,-48.800,7.300,,-7.300,1980/01/05 05:11:06.406
1,4933,84625,-48.980,7.300,,-7.300,1980/01/05 05:11:06.593
1,4945,84844,-49.200,7.300,,-7.300,1980/01/05 05:11:06.812
1,4957,85032,-49.390,7.300,,-7.300,1980/01/05 05:11:07.000
1,4969,85235,-49.590,7.300,,-7.300,1980/01/05 05:11:07.203
1,4981,85453,-49.810,7.300,,-7.300,1980/01/05 05:11:07.421
1,4993,85657,-50.020,7.300,,-7.300,1980/01/05 05:11:07.625
1,5005,85844,-50.220,7.300,,-7.300,1980/01/05 05:11:07.812
1,5017,86250,-50.590,7.200,,-7.200,1980/01/05 05:11:08.218
1,5029,86453,-50.800,7.200,,-7.200,1980/01/05 05:11:08.421
1,5041,86672,-51.030,7.200,,-7.200,1980/01/05 05:11:08.640
1,5053,86860,-51.210,7.300,,-7.300,1980/01/05 05:11:08.828
1,5065,87047,-51.410,7.200,,-7.200,1980/01/05 05:11:09.015
1,5077,87250,-51.600,7.200,,-7.200,1980/01/05 05:11:09.218
1,5089,87438,-51.800,7.200,,-7.200,1980/01/05 05:11:09.406
1,5101,87625,-51.980,7.200,,-7.200,1980/01/05 05:11:09.593
1,5113,87828,-52.190,7.200,,-7.200,1980/01/05 05:11:09.796
1,5125,88063,-52.420,7.200,,-7.200,1980/01/05 05:11:10.031
1,5137,88250,-52.600,7.200,,-7.200,1980/01/05 05:11:10.218
1,5149,88453,-52.820,7.200,,-7.200,1980/01/05 05:11:10.421
1,5161,88657,-53.020,7.200,,-7.200,1980/01/05 05:11:10.625
1,5173,88875,-53.250,7.200,,-7.200,1980/01/05 05:11:10.843
1,5185,89094,-53.450,7.200,,-7.200,1980/01/05 05:11:11.062
1,5197,89297,-53.640,7.200,,-7.200,1980/01/05 05:11:11.265
1,5209,89688,-54.030,7.200,,-7.200,1980/01/05 05:11:11.656
1,5221,89907,-54.250,7.200,,-7.200,1980/01/05 05:11:11.875
1,5233,90110,-54.460,7.200,,-7.200,1980/01/05 05:11:12.078
1,5245,90313,-54.670,7.200,,-7.200,1980/01/05 05:11:12.281
1,5257,90500,-54.850,7.200,,-7.200,1980/01/05 05:11:12.468
1,5269,90688,-55.030,7.200,,-7.200,1980/01/05 05:11:12.656
1,5281,90922,-55.280,7.200,,-7.200,1980/01/05 05:11:12.890
1,5293,91110,-55.460,7.200,,-7.200,1980/01/05 05:11:13.078
1,5305,91297,-55.650,7.200,,-7.200,1980/01/05 05:11:13.265
1,5317,91500,-55.850,7.200,,-7.200,1980/01/05 05:11:13.468
1,5329,91703,-56.070,7.200,,-7.200,1980/01/05 05:11:13.671
1,5341,91922,-56.280,7.200,,-7.200,1980/01/05 05:11:13.890
1,5353,92141,-56.510,7.200,,-7.200,1980/01/05 05:11:14.109
1,5365,92344,-56.690,7.200,,-7.200,1980/01/05 05:11:14.312
1,5377,92563,-56.930,7.200,,-7.200,1980/01/05 05:11:14.531
1,5389,92766,-57.130,7.200,,-7.200,1980/01/05 05:11:14.734
1,5401,92953,-57.310,7.200,,-7.200,1980/01/05 05:11:14.921
1,5413,93344,-57.690,7.200,,-7.200,1980/01/05 05:11:15.312
1,5425,93578,-57.940,7.200,,-7.200,1980/01/05 05:11:15.546
1,5437,93797,-58.140,7.200,,-7.200,1980/01/05 05:11:15.765
1,5449,94000,-58.340,7.200,,-7.200,1980/01/05 05:11:15.968
1,5461,94235,-58.580,7.200,,-7.200,1980/01/05 05:11:16.203
1,5473,94438,-58.780,7.200,,-7.200,1980/01/05 05:11:16.406
1,5485,94641,-58.990,7.200,,-7.200,1980/01/05 05:11:16.609
1,5497,94828,-59.190,7.200,,-7.200,1980/01/05 05:11:16.796
1,5509,95047,-59.400,7.200,,-7.200,1980/01/05 05:11:17.015
1,5521,95235,-59.590,7.200,,-7.200,1980/01/05 05:11:17.203
1,5533,95438,-59.780,7.200,,-7.200,1980/01/05 05:11:17.406
1,5545,95641,-60.000,7.200,,-7.200,1980/01/05 05:11:17.609
1,5557,95828,-60.190,7.200,,-7.200,1980/01/05 05:11:17.796
1,5569,96016,-60.370,7.200,,-7.200,1980/01/05 05:11:17.984
1,5581,96235,-60.590,7.200,,-7.200,1980/01/05 05:11:18.203
1,5593,96438,-60.800,7.200,,-7.200,1980/01/05 05:11:18.406
1,5605,96641,-61.000,7.200,,-7.200,1980/01/05 05:11:18.609
1,5617,97016,-61.360,7.200,,-7.200,1980/01/05 05:11:18.984
1,5629,97219,-61.570,7.200,,-7.200,1980/01/05 05:11:19.187
1,5641,97407,-61.760,7.200,,-7.200,1980/01/05 05:11:19.375
1,5653,97594,-61.950,7.200,,-7.200,1980/01/05 05:11:19.562
1,5665,97813,-62.150,7.200,,-7.200,1980/01/05 05:11:19.781
1,5677,98000,-62.350,7.200,,-7.200,1980/01/05 05:11:19.968
1,5689,98203,-62.550,7.200,,-7.200,1980/01/05 05:11:20.171
1,5701,98407,-62.760,7.200,,-7.200,1980/01/05 05:11:20.375
1,5713,98610,-62.960,7.200,,-7.200,1980/01/05 05:11:20.578
1,5725,98797,-63.150,7.200,,-7.200,1980/01/05 05:11:20.765
1,5737,98985,-63.340,7.200,,-7.200,1980/01/05 05:11:20.953
1,5749,99188,-63.530,7.200,,-7.200,1980/01/05 05:11:21.156
1,5761,99375,-63.720,7.200,,-7.200,1980/01/05 05:11:21.343
1,5773,99594,-63.950,7.200,,-7.200,1980/01/05 05:11:21.562
1,5785,99813,-64.170,7.200,,-7.200,1980/01/05 05:11:21.781
1,5797,100016,-64.360,7.200,,-7.200,1980/01/05 05:11:21.984
1,5809,100407,-64.750,7.200,,-7.200,1980/01/05 05:11:22.375
1,5821,100610,-64.950,7.200,,-7.200,1980/01/05 05:11:22.578
1,5833,100797,-65.120,7.200,,-7.200,1980/01/05 05:11:22.765
1,5845,101000,-65.340,7.200,,-7.200,1980/01/05 05:11:22.968
1,5857,101203,-65.550,7.200,,-7.200,1980/01/05 05:11:23.171
1,5869,101422,-65.760,7.200,,-7.200,1980/01/05 05:11:23.390
1,5881,101610,-65.950,7.200,,-7.200,1980/01/05 05:11:23.578
1,5893,101844,-66.180,7.200,,-7.200,1980/01/05 05:11:23.812
1,5905,102032,-66.380,7.200,,-7.200,1980/01/05 05:11:24.000
1,5917,102219,-66.570,7.200,,-7.200,1980/01/05 05:11:24.187
1,5929,102438,-66.780,7.200,,-7.200,1980/01/05 05:11:24.406
1,5941,102641,-67.000,7.200,,-7.200,1980/01/05 05:11:24.609
1,5953,102828,-67.190,7.200,,-7.200,1980/01/05 05:11:24.796
1,5965,103047,-67.390,7.200,,-7.200,1980/01/05 05:11:25.015
1,5977,103250,-67.590,7.200,,-7.200,1980/01/05 05:11:25.218
1,5989,103453,-67.800,7.200,,-7.200,1980/01/05 05:11:25.421
1,6001,103657,-68.000,7.200,,-7.200,1980/01/05 05:11:25.625
1,6013,104063,-68.400,7.200,,-7.200,1980/01/05 05:11:26.031
1,6025,104297,-68.650,7.200,,-7.200,1980/01/05 05:11:26.265
1,6037,104485,-68.830,7.200,,-7.200,1980/01/05 05:11:26.453
1,6049,104688,-69.030,7.200,,-7.200,1980/01/05 05:11:26.656
1,6061,104891,-69.240,7.200,,-7.200,1980/01/05 05:11:26.859
1,6073,105110,-69.450,7.200,,-7.200,1980/01/05 05:11:27.078
1,6085,105297,-69.640,7.200,,-7.200,1980/01/05 05:11:27.265
1,6097,105516,-69.870,7.200,,-7.200,1980/01/05 05:11:27.484
1,6109,105719,-70.070,7.200,,-7.200,1980/01/05 05:11:27.687
1,6121,105922,-70.270,7.200,,-7.200,1980/01/05 05:11:27.890
1,6133,106110,-70.450,7.200,,-7.200,1980/01/05 05:11:28.078
1,6145,106313,-70.650,7.200,,-7.200,1980/01/05 05:11:28.281
1,6157,106500,-70.840,7.200,,-7.200,1980/01/05 05:11:28.468
1,6169,106703,-71.060,7.200,,-7.200,1980/01/05 05:11:28.671
1,6181,106907,-71.250,7.200,,-7.200,1980/01/05 05:11:28.875
1,6193,107094,-71.440,7.200,,-7.200,1980/01/05 05:11:29.062
1,6205,107297,-71.630,7.200,,-7.200,1980/01/05 05:11:29.265
1,6217,107703,-72.040,7.200,,-7.200,1980/01/05 05:11:29.671
1,6229,107907,-72.240,7.200,,-7.200,1980/01/05 05:11:29.875
1,6241,108094,-72.420,7.200,,-7.200,1980/01/05 05:11:30.062
1,6253,108282,-72.620,7.200,,-7.200,1980/01/05 05:11:30.250
1,6265,108500,-72.830,7.200,,-7.200,1980/01/05 05:11:30.468
1,6277,108703,-73.040,7.200,,-7.200,1980/01/05 05:11:30.671
1,6289,108907,-73.260,7.200,,-7.200,1980/01/05 05:11:30.875
1,6301,109094,-73.440,7.200,,-7.200,1980/01/05 05:11:31.062
1,6313,109282,-73.630,7.200,,-7.200,1980/01/05 05:11:31.250
1,6325,109469,-73.810,7.200,,-7.200,1980/01/05 05:11:31.437
1,6337,109657,-74.000,7.200,,-7.200,1980/01/05 05:11:31.625
1,6349,109844,-74.190,7.200,,-7.200,1980/01/05 05:11:31.812
1,6361,110047,-74.390,7.200,,-7.200,1980/01/05 05:11:32.015
1,6373,110266,-74.610,7.200,,-7.200,1980/01/05 05:11:32.234
1,6385,110453,-74.800,7.200,,-7.200,1980/01/05 05:11:32.421
1,6397,110641,-74.970,7.200,,-7.200,1980/01/05 05:11:32.609
1,6409,111094,-75.420,7.200,,-7.200,1980/01/05 05:11:33.062
1,6421,111313,-75.640,7.200,,-7.200,1980/01/05 05:11:33.281
1,6433,111500,-75.830,7.200,,-7.200,1980/01/05 05:11:33.468
1,6445,111688,-76.020,7.200,,-7.200,1980/01/05 05:11:33.656
1,6457,111875,-76.210,7.200,,-7.200,1980/01/05 05:11:33.843
1,6469,112094,-76.410,7.200,,-7.200,1980/01/05 05:11:34.062
1,6481,112297,-76.630,7.200,,-7.200,1980/01/05 05:11:34.265
1,6493,112485,-76.820,7.200,,-7.200,1980/01/05 05:11:34.453
1,6505,112688,-77.020,7.200,,-7.200,1980/01/05 05:11:34.656
1,6517,112922,-77.260,7.200,,-7.200,1980/01/05 05:11:34.890
1,6529,113125,-77.470,7.200,,-7.200,1980/01/05 05:11:35.093
1,6541,113344,-77.680,7.200,,-7.200,1980/01/05 05:11:35.312
1,6553,113532,-77.880,7.200,,-7.200,1980/01/05 05:11:35.500
1,6565,113735,-78.070,7.200,,-7.200,1980/01/05 05:11:35.703
1,6577,113922,-78.270,7.200,,-7.200,1980/01/05 05:11:35.890
1,6589,114110,-78.440,7.200,,-7.200,1980/01/05 05:11:36.078
1,6601,114297,-78.640,7.200,,-7.200,1980/01/05 05:11:36.265
1,6613,114719,-79.060,7.200,,-7.200,1980/01/05 05:11:36.687
1,6625,114938,-79.260,7.200,,-7.200,1980/01/05 05:11:36.906
1,6637,115141,-79.480,7.200,,-7.200,1980/01/05 05:11:37.109
1,6649,115328,-79.670,7.200,,-7.200,1980/01/05 05:11:37.296
1,6661,115532,-79.880,7.200,,-7.200,1980/01/05 05:11:37.500
1,6673,115719,-80.050,7.200,,-7.200,1980/01/05 05:11:37.687
1,6685,115907,-80.230,7.200,,-7.200,1980/01/05 05:11:37.875
1,6697,116125,-80.460,7.200,,-7.200,1980/01/05 05:11:38.093
1,6709,116313,-80.640,7.200,,-7.200,1980/01/05 05:11:38.281
1,6721,116500,-80.830,7.200,,-7.200,1980/01/05 05:11:38.468
1,6733,116719,-81.040,7.200,,-7.200,1980/01/05 05:11:38.687
1,6745,116907,-81.250,7.200,,-7.200,1980/01/05 05:11:38.875
1,6757,117094,-81.440,7.200,,-7.200,1980/01/05 05:11:39.062
1,6769,117282,-81.630,7.200,,-7.200,1980/01/05 05:11:39.250
1,6781,117469,-81.800,7.200,,-7.200,1980/01/05 05:11:39.437
1,6793,117657,-81.990,7.200,,-7.200,1980/01/05 05:11:39.625
1,6805,117844,-82.170,7.200,,-7.200,1980/01/05 05:11:39.812
1,6817,118266,-82.590,7.200,,-7.200,1980/01/05 05:11:40.234
1,6829,118469,-82.810,7.200,,-7.200,1980/01/05 05:11:40.437
1,6841,118657,-82.980,7.200,,-7.200,1980/01/05 05:11:40.625
1,6853,118844,-83.170,7.200,,-7.200,1980/01/05 05:11:40.812
1,6865,119032,-83.360,7.200,,-7.200,1980/01/05 05:11:41.000
1,6877,119235,-83.570,7.200,,-7.200,1980/01/05 05:11:41.203
1,6889,119453,-83.800,7.200,,-7.200,1980/01/05 05:11:41.421
1,6901,119657,-83.980,7.200,,-7.200,1980/01/05 05:11:41.625
1,6913,119844,-84.170,7.200,,-7.200,1980/01/05 05:11:41.812
1,6925,120047,-84.380,7.200,,-7.200,1980/01/05 05:11:42.015
1,6937,120235,-84.570,7.200,,-7.200,1980/01/05 05:11:42.203
1,6949,120438,-84.760,7.200,,-7.200,1980/01/05 05:11:42.406
1,6961,120625,-84.970,7.200,,-7.200,1980/01/05 05:11:42.593
1,6973,120828,-85.160,7.200,,-7.200,1980/01/05 05:11:42.796
1,6985,121016,-85.350,7.200,,-7.200,1980/01/05 05:11:42.984
1,6997,121219,-85.560,7.200,,-7.200,1980/01/05 05:11:43.187
1,7009,121657,-85.980,7.200,,-7.200,1980/01/05 05:11:43.625
1,7021,121844,-86.170,7.200,,-7.200,1980/01/05 05:11:43.812
1,7033,122047,-86.380,7.200,,-7.200,1980/01/05 05:11:44.015
1,7045,122266,-86.600,7.200,,-7.200,1980/01/05 05:11:44.234
1,7057,122453,-86.780,7.200,,-7.200,1980/01/05 05:11:44.421
1,7069,122672,-87.000,7.200,,-7.200,1980/01/05 05:11:44.640
1,7081,122860,-87.190,7.200,,-7.200,1980/01/05 05:11:44.828
1,7093,123063,-87.390,7.200,,-7.200,1980/01/05 05:11:45.031
1,7105,123250,-87.570,7.300,,-7.300,1980/01/05 05:11:45.218
1,7117,123438,-87.770,7.300,,-7.300,1980/01/05 05:11:45.406
1,7129,123641,-87.970,7.300,,-7.300,1980/01/05 05:11:45.609
1,7141,123828,-88.160,7.200,,-7.200,1980/01/05 05:11:45.796
1,7153,124032,-88.350,7.300,,-7.300,1980/01/05 05:11:46.000
1,7165,124235,-88.560,7.300,,-7.300,1980/01/05 05:11:46.203
1,7177,124438,-88.760,7.300,,-7.300,1980/01/05 05:11:46.406
1,7189,124625,-88.950,7.300,,-7.300,1980/01/05 05:11:46.593
1,7201,124813,-89.130,7.300,,-7.300,1980/01/05 05:11:46.781
1,7213,125282,-89.600,7.300,,-7.300,1980/01/05 05:11:47.250
1,7225,125469,-89.790,7.300,,-7.300,1980/01/05 05:11:47.437
1,7237,125688,-90.010,7.300,,-7.300,1980/01/05 05:11:47.656
1,7249,125875,-90.200,7.300,,-7.300,1980/01/05 05:11:47.843
1,7261,126063,-90.380,7.300,,-7.300,1980/01/05 05:11:48.031
1,7273,126297,-90.620,7.300,,-7.300,1980/01/05 05:11:48.265
1,7285,126485,-90.820,7.300,,-7.300,1980/01/05 05:11:48.453
1,7297,126688,-91.010,7.300,,-7.300,1980/01/05 05:11:48.656
1,7309,126891,-91.220,7.300,,-7.300,1980/01/05 05:11:48.859
1,7321,127094,-91.420,7.300,,-7.300,1980/01/05 05:11:49.062
1,7333,127282,-91.600,7.300,,-7.300,1980/01/05 05:11:49.250
1,7345,127469,-91.790,7.300,,-7.300,1980/01/05 05:11:49.437
1,7357,127657,-91.980,7.300,,-7.300,1980/01/05 05:11:49.625
1,7369,127875,-92.200,7.200,,-7.200,1980/01/05 05:11:49.843
1,7381,128063,-92.390,7.200,,-7.200,1980/01/05 05:11:50.031
1,7393,128250,-92.570,7.200,,-7.200,1980/01/05 05:11:50.218
1,7405,128438,-92.770,7.300,,-7.300,1980/01/05 05:11:50.406
1,7417,128891,-93.220,7.200,,-7.200,1980/01/05 05:11:50.859
1,7429,129078,-93.400,7.300,,-7.300,1980/01/05 05:11:51.046
1,7441,129282,-93.600,7.200,,-7.200,1980/01/05 05:11:51.250
1,7453,129485,-93.800,7.200,,-7.200,1980/01/05 05:11:51.453
1,7465,129688,-94.010,7.300,,-7.300,1980/01/05 05:11:51.656
1,7477,129922,-94.210,7.300,,-7.300,1980/01/05 05:11:51.890
1,7489,130125,-94.440,7.300,,-7.300,1980/01/05 05:11:52.093
1,7501,130328,-94.650,7.200,,-7.200,1980/01/05 05:11:52.296
1,7513,130547,-94.870,7.300,,-7.300,1980/01/05 05:11:52.515
1,7525,130735,-95.060,7.300,,-7.300,1980/01/05 05:11:52.703
1,7537,130938,-95.260,7.200,,-7.200,1980/01/05 05:11:52.906
1,7549,131141,-95.480,7.300,,-7.300,1980/01/05 05:11:53.109
1,7561,131328,-95.670,7.300,,-7.300,1980/01/05 05:11:53.296
1,7573,131516,-95.850,7.300,,-7.300,1980/01/05 05:11:53.484
1,7585,131719,-96.040,7.200,,-7.200,1980/01/05 05:11:53.687
1,7597,131907,-96.220,7.200,,-7.200,1980/01/05 05:11:53.875
1,7609,132360,-96.410,7.200,,-7.200,1980/01/05 05:11:54.328
1,7621,132578,-96.900,7.200,,-7.200,1980/01/05 05:11:54.546
1,7633,132782,-97.100,7.300,,-7.300,1980/01/05 05:11:54.750
1,7645,132969,-97.290,7.200,,-7.200,1980/01/05 05:11:54.937
1,7657,133172,-97.490,7.200,,-7.200,1980/01/05 05:11:55.140
1,7669,133360,-97.680,7.300,,-7.300,1980/01/05 05:11:55.328
1,7681,133578,-97.910,7.200,,-7.200,1980/01/05 05:11:55.546
1,7693,133766,-98.080,7.200,,-7.200,1980/01/05 05:11:55.734
1,7705,133969,-98.300,7.300,,-7.300,1980/01/05 05:11:55.937
1,7717,134157,-98.470,7.300,,-7.300,1980/01/05 05:11:56.125
1,7729,134344,-98.660,7.200,,-7.200,1980/01/05 05:11:56.312
1,7741,134532,-98.850,7.300,,-7.300,1980/01/05 05:11:56.500
1,7753,134735,-99.060,7.200,,-7.200,1980/01/05 05:11:56.703
1,7765,134922,-99.250,7.200,,-7.200,1980/01/05 05:11:56.890
1,7777,135125,-99.450,7.300,,-7.300,1980/01/05 05:11:57.093
1,7789,135344,-99.650,7.200,,-7.200,1980/01/05 05:11:57.312
1,7801,135532,-99.840,7.300,,-7.300,1980/01/05 05:11:57.500
1,7813,136000,-100.320,7.300,,-7.300,1980/01/05 05:11:57.968
1,7825,136188,-100.500,7.300,,-7.300,1980/01/05 05:11:58.156
1,7837,136391,-100.700,7.200,,-7.200,1980/01/05 05:11:58.359
1,7849,136610,-100.930,7.300,,-7.300,1980/01/05 05:11:58.578
1,7861,136813,-101.130,7.300,,-7.300,1980/01/05 05:11:58.781
1,7873,137032,-101.350,7.300,,-7.300,1980/01/05 05:11:59.000
1,7885,137235,-101.560,7.300,,-7.300,1980/01/05 05:11:59.203
1,7897,137438,-101.770,7.300,,-7.300,1980/01/05 05:11:59.406
1,7909,137641,-101.970,7.200,,-7.200,1980/01/05 05:11:59.609
1,7921,137828,-102.150,7.300,,-7.300,1980/01/05 05:11:59.796
1,7933,138032,-102.350,7.300,,-7.300,1980/01/05 05:12:00.000
1,7945,138235,-102.560,7.300,,-7.300,1980/01/05 05:12:00.203
1,7957,138438,-102.750,7.300,,-7.300,1980/01/05 05:12:00.406
1,7969,138641,-102.960,7.200,,-7.200,1980/01/05 05:12:00.609
1,7981,138844,-103.160,7.300,,-7.300,1980/01/05 05:12:00.812
1,7993,139032,-103.340,7.200,,-7.200,1980/01/05 05:12:01.000
1,8005,139219,-103.530,7.300,,-7.300,1980/01/05 05:12:01.187
1,8017,139719,-104.030,7.200,,-7.200,1980/01/05 05:12:01.687
1,8029,139922,-104.240,7.200,,-7.200,1980/01/05 05:12:01.890
1,8041,140110,-104.430,7.200,,-7.200,1980/01/05 05:12:02.078
1,8053,140297,-104.610,7.200,,-7.200,1980/01/05 05:12:02.265
1,8065,140485,-104.800,7.200,,-7.200,1980/01/05 05:12:02.453
1,8077,140672,-104.990,7.200,,-7.200,1980/01/05 05:12:02.640
1,8089,140875,-105.190,7.200,,-7.200,1980/01/05 05:12:02.843
1,8101,141078,-105.400,7.200,,-7.200,1980/01/05 05:12:03.046
1,8113,141282,-105.600,7.200,,-7.200,1980/01/05 05:12:03.250
1,8125,141469,-105.780,7.200,,-7.200,1980/01/05 05:12:03.437
1,8137,141672,-105.990,7.200,,-7.200,1980/01/05 05:12:03.640
1,8149,141875,-106.190,7.200,,-7.200,1980/01/05 05:12:03.843
1,8161,142078,-106.400,7.200,,-7.200,1980/01/05 05:12:04.046
1,8173,142282,-106.600,7.300,,-7.300,1980/01/05 05:12:04.250
1,8185,142485,-106.790,7.200,,-7.200,1980/01/05 05:12:04.453
1,8197,142688,-106.990,7.200,,-7.200,1980/01/05 05:12:04.656
1,8209,143157,-107.460,7.200,,-7.200,1980/01/05 05:12:05.125
1,8221,143360,-107.670,7.200,,-7.200,1980/01/05 05:12:05.328
1,8233,143563,-107.870,7.200,,-7.200,1980/01/05 05:12:05.531
1,8245,143750,-108.060,7.200,,-7.200,1980/01/05 05:12:05.718
1,8257,143938,-108.250,7.200,,-7.200,1980/01/05 05:12:05.906
1,8269,144172,-108.490,7.200,,-7.200,1980/01/05 05:12:06.140
1,8281,144360,-108.650,7.200,,-7.200,1980/01/05 05:12:06.328
1,8293,144547,-108.860,7.200,,-7.200,1980/01/05 05:12:06.515
1,8305,144750,-109.060,7.200,,-7.200,1980/01/05 05:12:06.718
1,8317,144938,-109.240,7.200,,-7.200,1980/01/05 05:12:06.906
1,8329,145125,-109.430,7.200,,-7.200,1980/01/05 05:12:07.093
1,8341,145313,-109.640,7.200,,-7.200,1980/01/05 05:12:07.281
1,8353,145516,-109.840,7.200,,-7.200,1980/01/05 05:12:07.484
1,8365,145719,-110.030,7.200,,-7.200,1980/01/05 05:12:07.687
1,8377,145922,-110.230,7.200,,-7.200,1980/01/05 05:12:07.890
1,8389,146125,-110.430,7.200,,-7.200,1980/01/05 05:12:08.093
1,8401,146344,-110.640,7.200,,-7.200,1980/01/05 05:12:08.312
1,8413,146813,-111.120,7.200,,-7.200,1980/01/05 05:12:08.781
1,8425,147000,-111.310,7.200,,-7.200,1980/01/05 05:12:08.968
1,8437,147203,-111.510,7.200,,-7.200,1980/01/05 05:12:09.171
1,8449,147407,-111.710,7.200,,-7.200,1980/01/05 05:12:09.375
1,8461,147610,-111.910,7.300,,-7.300,1980/01/05 05:12:09.578
1,8473,147813,-112.120,7.200,,-7.200,1980/01/05 05:12:09.781
1,8485,148000,-112.300,7.300,,-7.300,1980/01/05 05:12:09.968
1,8497,148188,-112.490,7.300,,-7.300,1980/01/05 05:12:10.156
1,8509,148375,-112.670,7.200,,-7.200,1980/01/05 05:12:10.343
1,8521,148578,-112.900,7.200,,-7.200,1980/01/05 05:12:10.546
1,8533,148782,-113.100,7.200,,-7.200,1980/01/05 05:12:10.750
1,8545,148969,-113.280,7.200,,-7.200,1980/01/05 05:12:10.937
1,8557,149172,-113.470,7.300,,-7.300,1980/01/05 05:12:11.140
1,8569,149360,-113.670,7.300,,-7.300,1980/01/05 05:12:11.328
1,8581,149547,-113.850,7.200,,-7.200,1980/01/05 05:12:11.515
1,8593,149750,-114.050,7.200,,-7.200,1980/01/05 05:12:11.718
1,8605,149953,-114.260,7.200,,-7.200,1980/01/05 05:12:11.921
1,8617,150438,-114.740,7.200,,-7.200,1980/01/05 05:12:12.406
1,8629,150641,-114.960,7.200,,-7.200,1980/01/05 05:12:12.609
1,8641,150828,-115.140,7.200,,-7.200,1980/01/05 05:12:12.796
1,8653,151016,-115.330,7.200,,-7.200,1980/01/05 05:12:12.984
1,8665,151203,-115.510,7.200,,-7.200,1980/01/05 05:12:13.171
1,8677,151391,-115.700,7.200,,-7.200,1980/01/05 05:12:13.359
1,8689,151594,-115.900,7.200,,-7.200,1980/01/05 05:12:13.562
1,8701,151797,-116.080,7.200,,-7.200,1980/01/05 05:12:13.765
1,8713,152016,-116.340,7.100,,-7.100,1980/01/05 05:12:13.984
1,8725,152203,-116.510,7.100,,-7.100,1980/01/05 05:12:14.171
1,8737,152391,-116.690,7.100,,-7.100,1980/01/05 05:12:14.359
1,8749,152625,-116.920,7.100,,-7.100,1980/01/05 05:12:14.593
1,8761,152813,-117.130,7.100,,-7.100,1980/01/05 05:12:14.781
1,8773,153016,-117.320,7.100,,-7.100,1980/01/05 05:12:14.984
1,8785,153219,-117.510,7.100,,-7.100,1980/01/05 05:12:15.187
1,8797,153407,-117.700,7.100,,-7.100,1980/01/05 05:12:15.375
1,8809,153875,-117.880,7.100,,-7.100,1980/01/05 05:12:15.843
1,8821,154110,-118.410,7.100,,-7.100,1980/01/05 05:12:16.078
1,8833,154297,-118.600,7.100,,-7.100,1980/01/05 05:12:16.265
1,8845,154500,-118.800,7.000,,-7.000,1980/01/05 05:12:16.468
1,8857,154703,-119.010,7.000,,-7.000,1980/01/05 05:12:16.671
1,8869,154907,-119.210,7.000,,-7.000,1980/01/05 05:12:16.875
1,8881,155094,-119.390,7.000,,-7.000,1980/01/05 05:12:17.062
1,8893,155313,-119.610,7.000,,-7.000,1980/01/05 05:12:17.281
1,8905,155500,-119.800,7.000,,-7.000,1980/01/05 05:12:17.468
1,8917,155703,-120.010,7.000,,-7.000,1980/01/05 05:12:17.671
1,8929,155907,-120.210,6.900,,-6.900,1980/01/05 05:12:17.875
1,8941,156094,-120.400,6.900,,-6.900,1980/01/05 05:12:18.062
1,8953,156297,-120.600,6.900,,-6.900,1980/01/05 05:12:18.265
1,8965,156516,-120.830,6.900,,-6.900,1980/01/05 05:12:18.484
1,8977,156719,-121.020,6.900,,-6.900,1980/01/05 05:12:18.687
1,8989,156907,-121.200,6.900,,-6.900,1980/01/05 05:12:18.875
1,9001,157094,-121.380,6.900,,-6.900,1980/01/05 05:12:19.062
1,9013,157594,-121.890,6.900,,-6.900,1980/01/05 05:12:19.562
1,9025,157797,-122.100,6.900,,-6.900,1980/01/05 05:12:19.765
1,9037,158016,-122.310,6.900,,-6.900,1980/01/05 05:12:19.984
1,9049,158203,-122.510,6.900,,-6.900,1980/01/05 05:12:20.171
1,9061,158407,-122.700,6.800,,-6.800,1980/01/05 05:12:20.375
1,9073,158641,-122.930,6.800,,-6.800,1980/01/05 05:12:20.609
1,9085,158828,-123.130,6.800,,-6.800,1980/01/05 05:12:20.796
1,9097,159032,-123.330,6.800,,-6.800,1980/01/05 05:12:21.000
1,9109,159235,-123.540,6.700,,-6.700,1980/01/05 05:12:21.203
1,9121,159422,-123.730,6.700,,-6.700,1980/01/05 05:12:21.390
1,9133,159641,-123.960,6.700,,-6.700,1980/01/05 05:12:21.609
1,9145,159828,-124.130,6.600,,-6.600,1980/01/05 05:12:21.796
1,9157,160016,-124.310,6.600,,-6.600,1980/01/05 05:12:21.984
1,9169,160203,-124.500,6.500,,-6.500,1980/01/05 05:12:22.171
1,9181,160407,-124.700,6.500,,-6.500,1980/01/05 05:12:22.375
1,9193,160610,-124.900,6.400,,-6.400,1980/01/05 05:12:22.578
1,9205,160813,-125.110,6.400,,-6.400,1980/01/05 05:12:22.781
1,9217,161313,-125.610,6.300,,-6.300,1980/01/05 05:12:23.281
1,9229,161516,-125.810,6.200,,-6.200,1980/01/05 05:12:23.484
1,9241,161703,-126.000,6.200,,-6.200,1980/01/05 05:12:23.671
1,9253,161907,-126.210,6.100,,-6.100,1980/01/05 05:12:23.875
1,9265,162110,-126.410,6.100,,-6.100,1980/01/05 05:12:24.078
1,9277,162297,-126.600,6.000,,-6.000,1980/01/05 05:12:24.265
1,9289,162516,-126.830,5.900,,-5.900,1980/01/05 05:12:24.484
1,9301,162719,-127.020,5.900,,-5.900,1980/01/05 05:12:24.687
1,9313,162938,-127.240,5.900,,-5.900,1980/01/05 05:12:24.906
1,9325,163157,-127.460,5.800,,-5.800,1980/01/05 05:12:25.125
1,9337,163375,-127.680,5.700,,-5.700,1980/01/05 05:12:25.343
1,9349,163563,-127.850,5.700,,-5.700,1980/01/05 05:12:25.531
1,9361,163766,-128.060,5.600,,-5.600,1980/01/05 05:12:25.734
1,9373,163953,-128.250,5.500,,-5.500,1980/01/05 05:12:25.921
1,9385,164157,-128.440,5.400,,-5.400,1980/01/05 05:12:26.125
1,9397,164344,-128.630,5.400,,-5.400,1980/01/05 05:12:26.312
1,9409,164844,-128.830,5.300,,-5.300,1980/01/05 05:12:26.812
1,9421,165063,-129.360,5.100,,-5.100,1980/01/05 05:12:27.031
1,9433,165250,-129.540,5.000,,-5.000,1980/01/05 05:12:27.218
1,9445,165438,-129.720,4.900,,-4.900,1980/01/05 05:12:27.406
1,9457,165641,-129.950,4.800,,-4.800,1980/01/05 05:12:27.609
1,9469,165875,-130.130,4.600,,-4.600,1980/01/05 05:12:27.843
1,9481,166141,-130.350,4.400,,-4.400,1980/01/05 05:12:28.109
1,9493,166391,-130.660,0.100,,-0.100,1980/01/05 05:12:28.359
1,9505,166578,-130.880,0.100,,-0.100,1980/01/05 05:12:28.546
1,9514,166735,-130.960,0.100,,-0.100,1980/01/05 05:12:28.703