File: 1st-Semester-Fall-2021/FEC1/LDPE Tensile Strength Tests/Team 3 LDPE 50 1.csv
Cycle,Test Point,Time (ms),Distance (mm),Up (N),Down (N),Force Data (N),Date / Time
1,1,0,0.000,,,0.000,1980/01/25 05:51:07.000
1,5,62,-0.050,,,0.000,1980/01/25 05:51:07.062
1,9,156,-0.110,,,0.000,1980/01/25 05:51:07.156
1,13,250,-0.190,0.100,,-0.100,1980/01/25 05:51:07.250
1,17,328,-0.260,0.300,,-0.300,1980/01/25 05:51:07.328
1,21,390,-0.310,0.300,,-0.300,1980/01/25 05:51:07.390
1,25,453,-0.370,0.400,,-0.400,1980/01/25 05:51:07.453
1,29,515,-0.410,0.500,,-0.500,1980/01/25 05:51:07.515
1,33,578,-0.480,0.600,,-0.600,1980/01/25 05:51:07.578
1,37,640,-0.520,0.700,,-0.700,1980/01/25 05:51:07.640
1,41,703,-0.570,0.700,,-0.700,1980/01/25 05:51:07.703
1,45,765,-0.630,0.900,,-0.900,1980/01/25 05:51:07.765
1,49,843,-0.680,0.900,,-0.900,1980/01/25 05:51:07.843
1,53,921,-0.750,1.000,,-1.000,1980/01/25 05:51:07.921
1,57,984,-0.810,1.100,,-1.100,1980/01/25 05:51:07.984
1,61,1046,-0.870,1.200,,-1.200,1980/01/25 05:51:08.046
1,65,1109,-0.910,1.300,,-1.300,1980/01/25 05:51:08.109
1,69,1171,-0.970,1.300,,-1.300,1980/01/25 05:51:08.171
1,73,1234,-1.010,1.400,,-1.400,1980/01/25 05:51:08.234
1,77,1296,-1.070,1.500,,-1.500,1980/01/25 05:51:08.296
1,81,1359,-1.120,1.600,,-1.600,1980/01/25 05:51:08.359
1,85,1421,-1.170,1.600,,-1.600,1980/01/25 05:51:08.421
1,89,1500,-1.230,1.700,,-1.700,1980/01/25 05:51:08.500
1,93,1562,-1.290,1.800,,-1.800,1980/01/25 05:51:08.562
1,97,1625,-1.330,1.800,,-1.800,1980/01/25 05:51:08.625
1,101,1703,-1.400,1.900,,-1.900,1980/01/25 05:51:08.703
1,105,1765,-1.450,2.000,,-2.000,1980/01/25 05:51:08.765
1,109,1828,-1.500,2.100,,-2.100,1980/01/25 05:51:08.828
1,113,1906,-1.560,2.100,,-2.100,1980/01/25 05:51:08.906
1,117,1968,-1.630,2.200,,-2.200,1980/01/25 05:51:08.968
1,121,2031,-1.680,2.200,,-2.200,1980/01/25 05:51:09.031
1,125,2109,-1.750,2.300,,-2.300,1980/01/25 05:51:09.109
1,129,2171,-1.800,2.300,,-2.300,1980/01/25 05:51:09.171
1,133,2234,-1.850,2.400,,-2.400,1980/01/25 05:51:09.234
1,137,2296,-1.890,2.400,,-2.400,1980/01/25 05:51:09.296
1,141,2359,-1.950,2.500,,-2.500,1980/01/25 05:51:09.359
1,145,2421,-2.000,2.500,,-2.500,1980/01/25 05:51:09.421
1,149,2500,-2.060,2.600,,-2.600,1980/01/25 05:51:09.500
1,153,2609,-2.120,2.600,,-2.600,1980/01/25 05:51:09.609
1,157,2671,-2.210,2.700,,-2.700,1980/01/25 05:51:09.671
1,161,2750,-2.260,2.700,,-2.700,1980/01/25 05:51:09.750
1,165,2812,-2.330,2.800,,-2.800,1980/01/25 05:51:09.812
1,169,2875,-2.380,2.800,,-2.800,1980/01/25 05:51:09.875
1,173,2937,-2.430,2.900,,-2.900,1980/01/25 05:51:09.937
1,177,3000,-2.480,2.900,,-2.900,1980/01/25 05:51:10.000
1,181,3078,-2.540,2.900,,-2.900,1980/01/25 05:51:10.078
1,185,3140,-2.600,3.000,,-3.000,1980/01/25 05:51:10.140
1,189,3203,-2.650,3.000,,-3.000,1980/01/25 05:51:10.203
1,193,3265,-2.710,3.000,,-3.000,1980/01/25 05:51:10.265
1,197,3328,-2.750,3.000,,-3.000,1980/01/25 05:51:10.328
1,201,3406,-2.820,3.100,,-3.100,1980/01/25 05:51:10.406
1,205,3468,-2.870,3.100,,-3.100,1980/01/25 05:51:10.468
1,209,3531,-2.920,3.200,,-3.200,1980/01/25 05:51:10.531
1,213,3593,-2.980,3.200,,-3.200,1980/01/25 05:51:10.593
1,217,3656,-3.030,3.200,,-3.200,1980/01/25 05:51:10.656
1,221,3718,-3.080,3.200,,-3.200,1980/01/25 05:51:10.718
1,225,3781,-3.140,3.300,,-3.300,1980/01/25 05:51:10.781
1,229,3859,-3.190,3.300,,-3.300,1980/01/25 05:51:10.859
1,233,3921,-3.260,3.300,,-3.300,1980/01/25 05:51:10.921
1,237,3984,-3.300,3.300,,-3.300,1980/01/25 05:51:10.984
1,241,4062,-3.360,3.300,,-3.300,1980/01/25 05:51:11.062
1,245,4125,-3.410,3.400,,-3.400,1980/01/25 05:51:11.125
1,249,4187,-3.470,3.400,,-3.400,1980/01/25 05:51:11.187
1,253,4250,-3.510,3.400,,-3.400,1980/01/25 05:51:11.250
1,257,4312,-3.570,3.400,,-3.400,1980/01/25 05:51:11.312
1,261,4375,-3.620,3.500,,-3.500,1980/01/25 05:51:11.375
1,265,4437,-3.680,3.500,,-3.500,1980/01/25 05:51:11.437
1,269,4500,-3.730,3.500,,-3.500,1980/01/25 05:51:11.500
1,273,4578,-3.790,3.500,,-3.500,1980/01/25 05:51:11.578
1,277,4656,-3.850,3.500,,-3.500,1980/01/25 05:51:11.656
1,281,4718,-3.910,3.600,,-3.600,1980/01/25 05:51:11.718
1,285,4781,-3.970,3.600,,-3.600,1980/01/25 05:51:11.781
1,289,4843,-4.020,3.600,,-3.600,1980/01/25 05:51:11.843
1,293,4906,-4.060,3.600,,-3.600,1980/01/25 05:51:11.906
1,297,4968,-4.120,3.600,,-3.600,1980/01/25 05:51:11.968
1,301,5046,-4.190,3.600,,-3.600,1980/01/25 05:51:12.046
1,305,5109,-4.240,3.600,,-3.600,1980/01/25 05:51:12.109
1,309,5171,-4.290,3.700,,-3.700,1980/01/25 05:51:12.171
1,313,5250,-4.350,3.700,,-3.700,1980/01/25 05:51:12.250
1,317,5312,-4.400,3.700,,-3.700,1980/01/25 05:51:12.312
1,321,5375,-4.460,3.700,,-3.700,1980/01/25 05:51:12.375
1,325,5437,-4.510,3.700,,-3.700,1980/01/25 05:51:12.437
1,329,5500,-4.560,3.700,,-3.700,1980/01/25 05:51:12.500
1,333,5562,-4.610,3.700,,-3.700,1980/01/25 05:51:12.562
1,337,5625,-4.670,3.700,,-3.700,1980/01/25 05:51:12.625
1,341,5703,-4.720,3.700,,-3.700,1980/01/25 05:51:12.703
1,345,5781,-4.790,3.800,,-3.800,1980/01/25 05:51:12.781
1,349,5843,-4.850,3.800,,-3.800,1980/01/25 05:51:12.843
1,353,5968,-4.900,3.800,,-3.800,1980/01/25 05:51:12.968
1,357,6031,-5.000,3.800,,-3.800,1980/01/25 05:51:13.031
1,361,6093,-5.060,3.800,,-3.800,1980/01/25 05:51:13.093
1,365,6156,-5.110,3.800,,-3.800,1980/01/25 05:51:13.156
1,369,6218,-5.160,3.800,,-3.800,1980/01/25 05:51:13.218
1,373,6281,-5.210,3.800,,-3.800,1980/01/25 05:51:13.281
1,377,6359,-5.280,3.800,,-3.800,1980/01/25 05:51:13.359
1,381,6437,-5.340,3.800,,-3.800,1980/01/25 05:51:13.437
1,385,6500,-5.400,3.800,,-3.800,1980/01/25 05:51:13.500
1,389,6562,-5.430,3.900,,-3.900,1980/01/25 05:51:13.562
1,393,6625,-5.500,3.900,,-3.900,1980/01/25 05:51:13.625
1,397,6687,-5.550,3.900,,-3.900,1980/01/25 05:51:13.687
1,401,6750,-5.600,3.900,,-3.900,1980/01/25 05:51:13.750
1,405,6812,-5.650,3.900,,-3.900,1980/01/25 05:51:13.812
1,409,6875,-5.700,3.900,,-3.900,1980/01/25 05:51:13.875
1,413,6937,-5.750,3.900,,-3.900,1980/01/25 05:51:13.937
1,417,7000,-5.800,3.900,,-3.900,1980/01/25 05:51:14.000
1,421,7062,-5.860,3.900,,-3.900,1980/01/25 05:51:14.062
1,425,7125,-5.910,3.900,,-3.900,1980/01/25 05:51:14.125
1,429,7203,-5.960,3.900,,-3.900,1980/01/25 05:51:14.203
1,433,7265,-6.020,3.900,,-3.900,1980/01/25 05:51:14.265
1,437,7328,-6.080,3.900,,-3.900,1980/01/25 05:51:14.328
1,441,7390,-6.130,3.900,,-3.900,1980/01/25 05:51:14.390
1,445,7453,-6.190,3.900,,-3.900,1980/01/25 05:51:14.453
1,449,7515,-6.240,3.900,,-3.900,1980/01/25 05:51:14.515
1,453,7578,-6.290,3.900,,-3.900,1980/01/25 05:51:14.578
1,457,7640,-6.340,3.900,,-3.900,1980/01/25 05:51:14.640
1,461,7718,-6.400,3.900,,-3.900,1980/01/25 05:51:14.718
1,465,7781,-6.460,3.900,,-3.900,1980/01/25 05:51:14.781
1,469,7859,-6.500,3.900,,-3.900,1980/01/25 05:51:14.859
1,473,7921,-6.580,3.900,,-3.900,1980/01/25 05:51:14.921
1,477,8000,-6.630,3.900,,-3.900,1980/01/25 05:51:15.000
1,481,8062,-6.690,3.900,,-3.900,1980/01/25 05:51:15.062
1,485,8171,-6.750,3.900,,-3.900,1980/01/25 05:51:15.171
1,489,8234,-6.840,3.900,,-3.900,1980/01/25 05:51:15.234
1,493,8296,-6.890,3.900,,-3.900,1980/01/25 05:51:15.296
1,497,8359,-6.950,3.900,,-3.900,1980/01/25 05:51:15.359
1,501,8421,-6.990,3.900,,-3.900,1980/01/25 05:51:15.421
1,505,8531,-7.020,3.900,,-3.900,1980/01/25 05:51:15.531
1,509,8593,-7.140,3.900,,-3.900,1980/01/25 05:51:15.593
1,513,8687,-7.210,3.900,,-3.900,1980/01/25 05:51:15.687
1,517,8765,-7.280,3.900,,-3.900,1980/01/25 05:51:15.765
1,521,8828,-7.330,3.900,,-3.900,1980/01/25 05:51:15.828
1,525,8890,-7.380,3.900,,-3.900,1980/01/25 05:51:15.890
1,529,8953,-7.440,3.900,,-3.900,1980/01/25 05:51:15.953
1,533,9015,-7.480,3.900,,-3.900,1980/01/25 05:51:16.015
1,537,9093,-7.550,3.900,,-3.900,1980/01/25 05:51:16.093
1,541,9156,-7.600,3.900,,-3.900,1980/01/25 05:51:16.156
1,545,9218,-7.650,3.900,,-3.900,1980/01/25 05:51:16.218
1,549,9281,-7.710,3.900,,-3.900,1980/01/25 05:51:16.281
1,553,9406,-7.760,3.900,,-3.900,1980/01/25 05:51:16.406
1,557,9468,-7.860,3.900,,-3.900,1980/01/25 05:51:16.468
1,561,9531,-7.920,3.900,,-3.900,1980/01/25 05:51:16.531
1,565,9609,-7.990,3.900,,-3.900,1980/01/25 05:51:16.609
1,569,9671,-8.040,3.900,,-3.900,1980/01/25 05:51:16.671
1,573,9750,-8.090,3.900,,-3.900,1980/01/25 05:51:16.750
1,577,9812,-8.150,3.900,,-3.900,1980/01/25 05:51:16.812
1,581,9875,-8.200,3.900,,-3.900,1980/01/25 05:51:16.875
1,585,9937,-8.240,3.900,,-3.900,1980/01/25 05:51:16.937
1,589,10000,-8.300,3.900,,-3.900,1980/01/25 05:51:17.000
1,593,10062,-8.350,3.900,,-3.900,1980/01/25 05:51:17.062
1,597,10125,-8.420,3.900,,-3.900,1980/01/25 05:51:17.125
1,601,10187,-8.460,3.900,,-3.900,1980/01/25 05:51:17.187
1,605,10250,-8.510,3.800,,-3.800,1980/01/25 05:51:17.250
1,609,10343,-8.580,3.900,,-3.900,1980/01/25 05:51:17.343
1,613,10421,-8.640,3.800,,-3.800,1980/01/25 05:51:17.421
1,617,10500,-8.720,3.800,,-3.800,1980/01/25 05:51:17.500
1,621,10562,-8.780,3.800,,-3.800,1980/01/25 05:51:17.562
1,625,10640,-8.830,3.800,,-3.800,1980/01/25 05:51:17.640
1,629,10703,-8.880,3.800,,-3.800,1980/01/25 05:51:17.703
1,633,10781,-8.950,3.800,,-3.800,1980/01/25 05:51:17.781
1,637,10843,-9.010,3.800,,-3.800,1980/01/25 05:51:17.843
1,641,10906,-9.070,3.800,,-3.800,1980/01/25 05:51:17.906
1,645,10968,-9.120,3.800,,-3.800,1980/01/25 05:51:17.968
1,649,11046,-9.180,3.800,,-3.800,1980/01/25 05:51:18.046
1,653,11109,-9.220,3.800,,-3.800,1980/01/25 05:51:18.109
1,657,11171,-9.280,3.800,,-3.800,1980/01/25 05:51:18.171
1,661,11234,-9.330,3.800,,-3.800,1980/01/25 05:51:18.234
1,665,11296,-9.390,3.800,,-3.800,1980/01/25 05:51:18.296
1,669,11359,-9.430,3.800,,-3.800,1980/01/25 05:51:18.359
1,673,11421,-9.490,3.800,,-3.800,1980/01/25 05:51:18.421
1,677,11500,-9.550,3.800,,-3.800,1980/01/25 05:51:18.500
1,681,11562,-9.610,3.800,,-3.800,1980/01/25 05:51:18.562
1,685,11625,-9.650,3.800,,-3.800,1980/01/25 05:51:18.625
1,689,11703,-9.710,3.800,,-3.800,1980/01/25 05:51:18.703
1,693,11781,-9.780,3.800,,-3.800,1980/01/25 05:51:18.781
1,697,11843,-9.840,3.800,,-3.800,1980/01/25 05:51:18.843
1,701,11906,-9.870,3.800,,-3.800,1980/01/25 05:51:18.906
1,705,11968,-9.930,3.700,,-3.700,1980/01/25 05:51:18.968
1,709,12046,-10.000,3.800,,-3.800,1980/01/25 05:51:19.046
1,713,12125,-10.060,3.700,,-3.700,1980/01/25 05:51:19.125
1,717,12187,-10.130,3.700,,-3.700,1980/01/25 05:51:19.187
1,721,12250,-10.180,3.700,,-3.700,1980/01/25 05:51:19.250
1,725,12328,-10.230,3.700,,-3.700,1980/01/25 05:51:19.328
1,729,12390,-10.290,3.700,,-3.700,1980/01/25 05:51:19.390
1,733,12453,-10.350,3.700,,-3.700,1980/01/25 05:51:19.453
1,737,12515,-10.390,3.700,,-3.700,1980/01/25 05:51:19.515
1,741,12578,-10.450,3.700,,-3.700,1980/01/25 05:51:19.578
1,745,12640,-10.500,3.700,,-3.700,1980/01/25 05:51:19.640
1,749,12718,-10.560,3.700,,-3.700,1980/01/25 05:51:19.718
1,753,12843,-10.620,3.700,,-3.700,1980/01/25 05:51:19.843
1,757,12921,-10.730,3.700,,-3.700,1980/01/25 05:51:19.921
1,761,12984,-10.780,3.700,,-3.700,1980/01/25 05:51:19.984
1,765,13062,-10.840,3.700,,-3.700,1980/01/25 05:51:20.062
1,769,13125,-10.900,3.700,,-3.700,1980/01/25 05:51:20.125
1,773,13187,-10.960,3.700,,-3.700,1980/01/25 05:51:20.187
1,777,13250,-11.000,3.700,,-3.700,1980/01/25 05:51:20.250
1,781,13312,-11.060,3.700,,-3.700,1980/01/25 05:51:20.312
1,785,13375,-11.110,3.700,,-3.700,1980/01/25 05:51:20.375
1,789,13437,-11.160,3.700,,-3.700,1980/01/25 05:51:20.437
1,793,13500,-11.220,3.700,,-3.700,1980/01/25 05:51:20.500
1,797,13578,-11.270,3.700,,-3.700,1980/01/25 05:51:20.578
1,801,13656,-11.340,3.600,,-3.600,1980/01/25 05:51:20.656
1,805,13718,-11.400,3.700,,-3.700,1980/01/25 05:51:20.718
1,809,13796,-11.460,3.700,,-3.700,1980/01/25 05:51:20.796
1,813,13859,-11.510,3.700,,-3.700,1980/01/25 05:51:20.859
1,817,13937,-11.570,3.600,,-3.600,1980/01/25 05:51:20.937
1,821,14015,-11.630,3.700,,-3.700,1980/01/25 05:51:21.015
1,825,14078,-11.690,3.700,,-3.700,1980/01/25 05:51:21.078
1,829,14140,-11.760,3.600,,-3.600,1980/01/25 05:51:21.140
1,833,14203,-11.800,3.600,,-3.600,1980/01/25 05:51:21.203
1,837,14265,-11.850,3.700,,-3.700,1980/01/25 05:51:21.265
1,841,14328,-11.910,3.600,,-3.600,1980/01/25 05:51:21.328
1,845,14406,-11.960,3.600,,-3.600,1980/01/25 05:51:21.406
1,849,14468,-12.020,3.600,,-3.600,1980/01/25 05:51:21.468
1,853,14531,-12.080,3.600,,-3.600,1980/01/25 05:51:21.531
1,857,14593,-12.130,3.600,,-3.600,1980/01/25 05:51:21.593
1,861,14656,-12.180,3.600,,-3.600,1980/01/25 05:51:21.656
1,865,14718,-12.240,3.700,,-3.700,1980/01/25 05:51:21.718
1,869,14781,-12.290,3.600,,-3.600,1980/01/25 05:51:21.781
1,873,14859,-12.340,3.600,,-3.600,1980/01/25 05:51:21.859
1,877,14921,-12.400,3.600,,-3.600,1980/01/25 05:51:21.921
1,881,14984,-12.450,3.600,,-3.600,1980/01/25 05:51:21.984
1,885,15062,-12.510,3.600,,-3.600,1980/01/25 05:51:22.062
1,889,15125,-12.570,3.600,,-3.600,1980/01/25 05:51:22.125
1,893,15187,-12.620,3.600,,-3.600,1980/01/25 05:51:22.187
1,897,15250,-12.670,3.600,,-3.600,1980/01/25 05:51:22.250
1,901,15312,-12.730,3.600,,-3.600,1980/01/25 05:51:22.312
1,905,15375,-12.780,3.600,,-3.600,1980/01/25 05:51:22.375
1,909,15437,-12.820,3.600,,-3.600,1980/01/25 05:51:22.437
1,913,15531,-12.910,3.600,,-3.600,1980/01/25 05:51:22.531
1,917,15625,-12.970,3.600,,-3.600,1980/01/25 05:51:22.625
1,921,15687,-13.040,3.600,,-3.600,1980/01/25 05:51:22.687
1,925,15750,-13.080,3.600,,-3.600,1980/01/25 05:51:22.750
1,929,15812,-13.140,3.600,,-3.600,1980/01/25 05:51:22.812
1,933,15875,-13.180,3.600,,-3.600,1980/01/25 05:51:22.875
1,937,15937,-13.240,3.600,,-3.600,1980/01/25 05:51:22.937
1,941,16000,-13.290,3.600,,-3.600,1980/01/25 05:51:23.000
1,945,16062,-13.350,3.600,,-3.600,1980/01/25 05:51:23.062
1,949,16140,-13.390,3.600,,-3.600,1980/01/25 05:51:23.140
1,953,16265,-13.460,3.600,,-3.600,1980/01/25 05:51:23.265
1,957,16328,-13.560,3.600,,-3.600,1980/01/25 05:51:23.328
1,961,16390,-13.620,3.600,,-3.600,1980/01/25 05:51:23.390
1,965,16453,-13.660,3.600,,-3.600,1980/01/25 05:51:23.453
1,969,16515,-13.720,3.600,,-3.600,1980/01/25 05:51:23.515
1,973,16578,-13.780,3.600,,-3.600,1980/01/25 05:51:23.578
1,977,16640,-13.820,3.600,,-3.600,1980/01/25 05:51:23.640
1,981,16703,-13.880,3.600,,-3.600,1980/01/25 05:51:23.703
1,985,16765,-13.920,3.600,,-3.600,1980/01/25 05:51:23.765
1,989,16843,-14.000,3.600,,-3.600,1980/01/25 05:51:23.843
1,993,16906,-14.050,3.600,,-3.600,1980/01/25 05:51:23.906
1,997,16968,-14.100,3.600,,-3.600,1980/01/25 05:51:23.968
1,1001,17031,-14.150,3.600,,-3.600,1980/01/25 05:51:24.031
1,1005,17109,-14.200,3.600,,-3.600,1980/01/25 05:51:24.109
1,1009,17171,-14.280,3.600,,-3.600,1980/01/25 05:51:24.171
1,1013,17234,-14.320,3.600,,-3.600,1980/01/25 05:51:24.234
1,1017,17296,-14.370,3.600,,-3.600,1980/01/25 05:51:24.296
1,1021,17359,-14.430,3.600,,-3.600,1980/01/25 05:51:24.359
1,1025,17437,-14.490,3.600,,-3.600,1980/01/25 05:51:24.437
1,1029,17500,-14.540,3.600,,-3.600,1980/01/25 05:51:24.500
1,1033,17562,-14.590,3.600,,-3.600,1980/01/25 05:51:24.562
1,1037,17625,-14.640,3.600,,-3.600,1980/01/25 05:51:24.625
1,1041,17687,-14.690,3.600,,-3.600,1980/01/25 05:51:24.687
1,1045,17781,-14.770,3.600,,-3.600,1980/01/25 05:51:24.781
1,1049,17843,-14.830,3.600,,-3.600,1980/01/25 05:51:24.843
1,1053,17906,-14.880,3.600,,-3.600,1980/01/25 05:51:24.906
1,1057,17984,-14.950,3.600,,-3.600,1980/01/25 05:51:24.984
1,1061,18078,-15.010,3.600,,-3.600,1980/01/25 05:51:25.078
1,1065,18156,-15.080,3.600,,-3.600,1980/01/25 05:51:25.156
1,1069,18218,-15.130,3.600,,-3.600,1980/01/25 05:51:25.218
1,1073,18281,-15.190,3.500,,-3.500,1980/01/25 05:51:25.281
1,1077,18343,-15.250,3.500,,-3.500,1980/01/25 05:51:25.343
1,1081,18406,-15.300,3.600,,-3.600,1980/01/25 05:51:25.406
1,1085,18468,-15.340,3.500,,-3.500,1980/01/25 05:51:25.468
1,1089,18531,-15.410,3.500,,-3.500,1980/01/25 05:51:25.531
1,1093,18593,-15.460,3.500,,-3.500,1980/01/25 05:51:25.593
1,1097,18656,-15.500,3.600,,-3.600,1980/01/25 05:51:25.656
1,1101,18718,-15.560,3.500,,-3.500,1980/01/25 05:51:25.718
1,1105,18781,-15.610,3.500,,-3.500,1980/01/25 05:51:25.781
1,1109,18859,-15.660,3.600,,-3.600,1980/01/25 05:51:25.859
1,1113,18921,-15.730,3.500,,-3.500,1980/01/25 05:51:25.921
1,1117,18984,-15.780,3.500,,-3.500,1980/01/25 05:51:25.984
1,1121,19046,-15.830,3.500,,-3.500,1980/01/25 05:51:26.046
1,1125,19109,-15.880,3.600,,-3.600,1980/01/25 05:51:26.109
1,1129,19187,-15.940,3.500,,-3.500,1980/01/25 05:51:26.187
1,1133,19250,-16.000,3.500,,-3.500,1980/01/25 05:51:26.250
1,1137,19312,-16.050,3.500,,-3.500,1980/01/25 05:51:26.312
1,1141,19390,-16.110,3.500,,-3.500,1980/01/25 05:51:26.390
1,1145,19453,-16.170,3.500,,-3.500,1980/01/25 05:51:26.453
1,1149,19515,-16.210,3.500,,-3.500,1980/01/25 05:51:26.515
1,1153,19640,-16.260,3.500,,-3.500,1980/01/25 05:51:26.640
1,1157,19703,-16.370,3.500,,-3.500,1980/01/25 05:51:26.703
1,1161,19781,-16.440,3.500,,-3.500,1980/01/25 05:51:26.781
1,1165,19843,-16.490,3.500,,-3.500,1980/01/25 05:51:26.843
1,1169,19906,-16.540,3.500,,-3.500,1980/01/25 05:51:26.906
1,1173,19968,-16.590,3.500,,-3.500,1980/01/25 05:51:26.968
1,1177,20031,-16.640,3.500,,-3.500,1980/01/25 05:51:27.031
1,1181,20109,-16.720,3.500,,-3.500,1980/01/25 05:51:27.109
1,1185,20171,-16.770,3.500,,-3.500,1980/01/25 05:51:27.171
1,1189,20250,-16.830,3.500,,-3.500,1980/01/25 05:51:27.250
1,1193,20312,-16.880,3.500,,-3.500,1980/01/25 05:51:27.312
1,1197,20390,-16.950,3.500,,-3.500,1980/01/25 05:51:27.390
1,1201,20453,-17.000,3.500,,-3.500,1980/01/25 05:51:27.453
1,1205,20515,-17.060,3.500,,-3.500,1980/01/25 05:51:27.515
1,1209,20609,-17.110,3.500,,-3.500,1980/01/25 05:51:27.609
1,1213,20671,-17.170,3.500,,-3.500,1980/01/25 05:51:27.671
1,1217,20734,-17.230,3.500,,-3.500,1980/01/25 05:51:27.734
1,1221,20796,-17.290,3.500,,-3.500,1980/01/25 05:51:27.796
1,1225,20859,-17.330,3.500,,-3.500,1980/01/25 05:51:27.859
1,1229,20921,-17.390,3.500,,-3.500,1980/01/25 05:51:27.921
1,1233,21015,-17.460,3.500,,-3.500,1980/01/25 05:51:28.015
1,1237,21093,-17.530,3.500,,-3.500,1980/01/25 05:51:28.093
1,1241,21171,-17.600,3.500,,-3.500,1980/01/25 05:51:28.171
1,1245,21265,-17.660,3.500,,-3.500,1980/01/25 05:51:28.265
1,1249,21328,-17.730,3.500,,-3.500,1980/01/25 05:51:28.328
1,1253,21390,-17.770,3.500,,-3.500,1980/01/25 05:51:28.390
1,1257,21468,-17.840,3.500,,-3.500,1980/01/25 05:51:28.468
1,1261,21546,-17.910,3.500,,-3.500,1980/01/25 05:51:28.546
1,1265,21609,-17.960,3.500,,-3.500,1980/01/25 05:51:28.609
1,1269,21671,-18.010,3.500,,-3.500,1980/01/25 05:51:28.671
1,1273,21750,-18.070,3.500,,-3.500,1980/01/25 05:51:28.750
1,1277,21828,-18.140,3.500,,-3.500,1980/01/25 05:51:28.828
1,1281,21921,-18.200,3.500,,-3.500,1980/01/25 05:51:28.921
1,1285,21984,-18.260,3.500,,-3.500,1980/01/25 05:51:28.984
1,1289,22046,-18.330,3.500,,-3.500,1980/01/25 05:51:29.046
1,1293,22109,-18.380,3.500,,-3.500,1980/01/25 05:51:29.109
1,1297,22171,-18.430,3.500,,-3.500,1980/01/25 05:51:29.171
1,1301,22234,-18.480,3.500,,-3.500,1980/01/25 05:51:29.234
1,1305,22296,-18.540,3.500,,-3.500,1980/01/25 05:51:29.296
1,1309,22359,-18.590,3.500,,-3.500,1980/01/25 05:51:29.359
1,1313,22453,-18.650,3.500,,-3.500,1980/01/25 05:51:29.453
1,1317,22531,-18.710,3.500,,-3.500,1980/01/25 05:51:29.531
1,1321,22593,-18.790,3.500,,-3.500,1980/01/25 05:51:29.593
1,1325,22656,-18.840,3.500,,-3.500,1980/01/25 05:51:29.656
1,1329,22734,-18.900,3.500,,-3.500,1980/01/25 05:51:29.734
1,1333,22796,-18.950,3.500,,-3.500,1980/01/25 05:51:29.796
1,1337,22859,-19.000,3.500,,-3.500,1980/01/25 05:51:29.859
1,1341,22953,-19.070,3.500,,-3.500,1980/01/25 05:51:29.953
1,1345,23046,-19.140,3.400,,-3.400,1980/01/25 05:51:30.046
1,1349,23125,-19.220,3.500,,-3.500,1980/01/25 05:51:30.125
1,1353,23265,-19.260,3.500,,-3.500,1980/01/25 05:51:30.265
1,1357,23328,-19.380,3.500,,-3.500,1980/01/25 05:51:30.328
1,1361,23390,-19.450,3.400,,-3.400,1980/01/25 05:51:30.390
1,1365,23468,-19.500,3.400,,-3.400,1980/01/25 05:51:30.468
1,1369,23531,-19.570,3.400,,-3.400,1980/01/25 05:51:30.531
1,1373,23593,-19.620,3.400,,-3.400,1980/01/25 05:51:30.593
1,1377,23656,-19.670,3.400,,-3.400,1980/01/25 05:51:30.656
1,1381,23718,-19.720,3.400,,-3.400,1980/01/25 05:51:30.718
1,1385,23796,-19.770,3.400,,-3.400,1980/01/25 05:51:30.796
1,1389,23859,-19.830,3.400,,-3.400,1980/01/25 05:51:30.859
1,1393,23937,-19.890,3.400,,-3.400,1980/01/25 05:51:30.937
1,1397,24015,-19.960,3.400,,-3.400,1980/01/25 05:51:31.015
1,1401,24078,-20.020,3.400,,-3.400,1980/01/25 05:51:31.078
1,1405,24140,-20.060,3.400,,-3.400,1980/01/25 05:51:31.140
1,1409,24218,-20.120,3.400,,-3.400,1980/01/25 05:51:31.218
1,1413,24281,-20.190,3.400,,-3.400,1980/01/25 05:51:31.281
1,1417,24343,-20.230,3.400,,-3.400,1980/01/25 05:51:31.343
1,1421,24406,-20.290,3.400,,-3.400,1980/01/25 05:51:31.406
1,1425,24484,-20.340,3.400,,-3.400,1980/01/25 05:51:31.484
1,1429,24562,-20.420,3.400,,-3.400,1980/01/25 05:51:31.562
1,1433,24625,-20.470,3.400,,-3.400,1980/01/25 05:51:31.625
1,1437,24687,-20.510,3.400,,-3.400,1980/01/25 05:51:31.687
1,1441,24750,-20.570,3.400,,-3.400,1980/01/25 05:51:31.750
1,1445,24828,-20.640,3.400,,-3.400,1980/01/25 05:51:31.828
1,1449,24906,-20.700,3.400,,-3.400,1980/01/25 05:51:31.906
1,1453,24968,-20.760,3.400,,-3.400,1980/01/25 05:51:31.968
1,1457,25046,-20.830,3.400,,-3.400,1980/01/25 05:51:32.046
1,1461,25125,-20.880,3.400,,-3.400,1980/01/25 05:51:32.125
1,1465,25187,-20.930,3.400,,-3.400,1980/01/25 05:51:32.187
1,1469,25250,-20.980,3.400,,-3.400,1980/01/25 05:51:32.250
1,1473,25312,-21.030,3.400,,-3.400,1980/01/25 05:51:32.312
1,1477,25375,-21.090,3.400,,-3.400,1980/01/25 05:51:32.375
1,1481,25437,-21.140,3.300,,-3.300,1980/01/25 05:51:32.437
1,1485,25500,-21.190,3.300,,-3.300,1980/01/25 05:51:32.500
1,1489,25562,-21.240,3.300,,-3.300,1980/01/25 05:51:32.562
1,1493,25625,-21.300,3.300,,-3.300,1980/01/25 05:51:32.625
1,1497,25687,-21.350,3.300,,-3.300,1980/01/25 05:51:32.687
1,1501,25765,-21.420,3.300,,-3.300,1980/01/25 05:51:32.765
1,1505,25828,-21.470,3.300,,-3.300,1980/01/25 05:51:32.828
1,1509,25890,-21.520,3.300,,-3.300,1980/01/25 05:51:32.890
1,1513,25953,-21.580,3.300,,-3.300,1980/01/25 05:51:32.953
1,1517,26015,-21.630,3.300,,-3.300,1980/01/25 05:51:33.015
1,1521,26078,-21.670,3.300,,-3.300,1980/01/25 05:51:33.078
1,1525,26140,-21.730,3.300,,-3.300,1980/01/25 05:51:33.140
1,1529,26203,-21.780,3.300,,-3.300,1980/01/25 05:51:33.203
1,1533,26281,-21.840,3.300,,-3.300,1980/01/25 05:51:33.281
1,1537,26359,-21.900,3.300,,-3.300,1980/01/25 05:51:33.359
1,1541,26421,-21.960,3.300,,-3.300,1980/01/25 05:51:33.421
1,1545,26484,-22.020,3.300,,-3.300,1980/01/25 05:51:33.484
1,1549,26546,-22.060,3.300,,-3.300,1980/01/25 05:51:33.546
1,1553,26687,-22.110,3.200,,-3.200,1980/01/25 05:51:33.687
1,1557,26765,-22.250,3.200,,-3.200,1980/01/25 05:51:33.765
1,1561,26843,-22.300,3.200,,-3.200,1980/01/25 05:51:33.843
1,1565,26906,-22.370,3.200,,-3.200,1980/01/25 05:51:33.906
1,1569,26968,-22.420,3.200,,-3.200,1980/01/25 05:51:33.968
1,1573,27046,-22.480,3.200,,-3.200,1980/01/25 05:51:34.046
1,1577,27109,-22.540,3.200,,-3.200,1980/01/25 05:51:34.109
1,1581,27171,-22.600,3.200,,-3.200,1980/01/25 05:51:34.171
1,1585,27234,-22.640,3.200,,-3.200,1980/01/25 05:51:34.234
1,1589,27296,-22.690,3.200,,-3.200,1980/01/25 05:51:34.296
1,1593,27359,-22.740,3.200,,-3.200,1980/01/25 05:51:34.359
1,1597,27421,-22.790,3.200,,-3.200,1980/01/25 05:51:34.421
1,1601,27484,-22.850,3.200,,-3.200,1980/01/25 05:51:34.484
1,1605,27546,-22.900,3.200,,-3.200,1980/01/25 05:51:34.546
1,1609,27625,-22.960,3.200,,-3.200,1980/01/25 05:51:34.625
1,1613,27687,-23.020,3.200,,-3.200,1980/01/25 05:51:34.687
1,1617,27750,-23.060,3.200,,-3.200,1980/01/25 05:51:34.750
1,1621,27812,-23.120,3.200,,-3.200,1980/01/25 05:51:34.812
1,1625,27875,-23.170,3.200,,-3.200,1980/01/25 05:51:34.875
1,1629,27937,-23.220,3.100,,-3.100,1980/01/25 05:51:34.937
1,1633,28015,-23.280,3.200,,-3.200,1980/01/25 05:51:35.015
1,1637,28078,-23.330,3.100,,-3.100,1980/01/25 05:51:35.078
1,1641,28140,-23.400,3.100,,-3.100,1980/01/25 05:51:35.140
1,1645,28203,-23.440,3.100,,-3.100,1980/01/25 05:51:35.203
1,1649,28265,-23.490,3.200,,-3.200,1980/01/25 05:51:35.265
1,1653,28328,-23.540,3.100,,-3.100,1980/01/25 05:51:35.328
1,1657,28390,-23.600,3.100,,-3.100,1980/01/25 05:51:35.390
1,1661,28453,-23.650,3.100,,-3.100,1980/01/25 05:51:35.453
1,1665,28515,-23.700,3.100,,-3.100,1980/01/25 05:51:35.515
1,1669,28578,-23.760,3.100,,-3.100,1980/01/25 05:51:35.578
1,1673,28640,-23.810,3.100,,-3.100,1980/01/25 05:51:35.640
1,1677,28718,-23.860,3.100,,-3.100,1980/01/25 05:51:35.718
1,1681,28781,-23.930,3.100,,-3.100,1980/01/25 05:51:35.781
1,1685,28843,-23.980,3.100,,-3.100,1980/01/25 05:51:35.843
1,1689,28921,-24.030,3.100,,-3.100,1980/01/25 05:51:35.921
1,1693,28984,-24.090,3.100,,-3.100,1980/01/25 05:51:35.984
1,1697,29046,-24.150,3.100,,-3.100,1980/01/25 05:51:36.046
1,1701,29109,-24.200,3.100,,-3.100,1980/01/25 05:51:36.109
1,1705,29187,-24.250,3.200,,-3.200,1980/01/25 05:51:36.187
1,1709,29250,-24.310,3.100,,-3.100,1980/01/25 05:51:36.250
1,1713,29312,-24.360,3.100,,-3.100,1980/01/25 05:51:36.312
1,1717,29375,-24.420,3.100,,-3.100,1980/01/25 05:51:36.375
1,1721,29437,-24.470,3.100,,-3.100,1980/01/25 05:51:36.437
1,1725,29500,-24.520,3.100,,-3.100,1980/01/25 05:51:36.500
1,1729,29562,-24.560,3.100,,-3.100,1980/01/25 05:51:36.562
1,1733,29625,-24.630,3.100,,-3.100,1980/01/25 05:51:36.625
1,1737,29687,-24.670,3.100,,-3.100,1980/01/25 05:51:36.687
1,1741,29750,-24.730,3.100,,-3.100,1980/01/25 05:51:36.750
1,1745,29812,-24.790,3.100,,-3.100,1980/01/25 05:51:36.812
1,1749,29875,-24.830,3.100,,-3.100,1980/01/25 05:51:36.875
1,1753,30031,-24.890,3.100,,-3.100,1980/01/25 05:51:37.031
1,1757,30109,-25.030,3.100,,-3.100,1980/01/25 05:51:37.109
1,1761,30171,-25.080,3.200,,-3.200,1980/01/25 05:51:37.171
1,1765,30265,-25.150,3.100,,-3.100,1980/01/25 05:51:37.265
1,1769,30328,-25.210,3.100,,-3.100,1980/01/25 05:51:37.328
1,1773,30390,-25.270,3.100,,-3.100,1980/01/25 05:51:37.390
1,1777,30453,-25.320,3.200,,-3.200,1980/01/25 05:51:37.453
1,1781,30515,-25.370,3.200,,-3.200,1980/01/25 05:51:37.515
1,1785,30578,-25.430,3.100,,-3.100,1980/01/25 05:51:37.578
1,1789,30640,-25.480,3.200,,-3.200,1980/01/25 05:51:37.640
1,1793,30703,-25.520,3.200,,-3.200,1980/01/25 05:51:37.703
1,1797,30765,-25.580,3.200,,-3.200,1980/01/25 05:51:37.765
1,1801,30843,-25.620,3.200,,-3.200,1980/01/25 05:51:37.843
1,1805,30906,-25.700,3.200,,-3.200,1980/01/25 05:51:37.906
1,1809,30968,-25.750,3.200,,-3.200,1980/01/25 05:51:37.968
1,1813,31031,-25.800,3.200,,-3.200,1980/01/25 05:51:38.031
1,1817,31109,-25.870,3.200,,-3.200,1980/01/25 05:51:38.109
1,1821,31187,-25.920,3.200,,-3.200,1980/01/25 05:51:38.187
1,1825,31250,-25.970,3.200,,-3.200,1980/01/25 05:51:38.250
1,1829,31312,-26.030,3.200,,-3.200,1980/01/25 05:51:38.312
1,1833,31375,-26.080,3.200,,-3.200,1980/01/25 05:51:38.375
1,1837,31437,-26.130,3.200,,-3.200,1980/01/25 05:51:38.437
1,1841,31515,-26.190,3.200,,-3.200,1980/01/25 05:51:38.515
1,1845,31578,-26.250,3.200,,-3.200,1980/01/25 05:51:38.578
1,1849,31640,-26.310,3.200,,-3.200,1980/01/25 05:51:38.640
1,1853,31718,-26.360,3.200,,-3.200,1980/01/25 05:51:38.718
1,1857,31781,-26.410,3.200,,-3.200,1980/01/25 05:51:38.781
1,1861,31843,-26.470,3.200,,-3.200,1980/01/25 05:51:38.843
1,1865,31906,-26.530,3.200,,-3.200,1980/01/25 05:51:38.906
1,1869,31968,-26.580,3.200,,-3.200,1980/01/25 05:51:38.968
1,1873,32031,-26.630,3.200,,-3.200,1980/01/25 05:51:39.031
1,1877,32109,-26.690,3.200,,-3.200,1980/01/25 05:51:39.109
1,1881,32171,-26.740,3.200,,-3.200,1980/01/25 05:51:39.171
1,1885,32234,-26.800,3.200,,-3.200,1980/01/25 05:51:39.234
1,1889,32296,-26.840,3.200,,-3.200,1980/01/25 05:51:39.296
1,1893,32359,-26.890,3.200,,-3.200,1980/01/25 05:51:39.359
1,1897,32421,-26.960,3.200,,-3.200,1980/01/25 05:51:39.421
1,1901,32484,-27.000,3.200,,-3.200,1980/01/25 05:51:39.484
1,1905,32546,-27.060,3.200,,-3.200,1980/01/25 05:51:39.546
1,1909,32609,-27.110,3.200,,-3.200,1980/01/25 05:51:39.609
1,1913,32671,-27.160,3.200,,-3.200,1980/01/25 05:51:39.671
1,1917,32750,-27.220,3.200,,-3.200,1980/01/25 05:51:39.750
1,1921,32812,-27.280,3.200,,-3.200,1980/01/25 05:51:39.812
1,1925,32906,-27.350,3.200,,-3.200,1980/01/25 05:51:39.906
1,1929,32968,-27.410,3.200,,-3.200,1980/01/25 05:51:39.968
1,1933,33031,-27.470,3.200,,-3.200,1980/01/25 05:51:40.031
1,1937,33093,-27.520,3.200,,-3.200,1980/01/25 05:51:40.093
1,1941,33156,-27.570,3.200,,-3.200,1980/01/25 05:51:40.156
1,1945,33218,-27.620,3.200,,-3.200,1980/01/25 05:51:40.218
1,1949,33281,-27.660,3.200,,-3.200,1980/01/25 05:51:40.281
1,1953,33421,-27.720,3.200,,-3.200,1980/01/25 05:51:40.421
1,1957,33500,-27.820,3.200,,-3.200,1980/01/25 05:51:40.500
1,1961,33578,-27.920,3.200,,-3.200,1980/01/25 05:51:40.578
1,1965,33640,-27.970,3.200,,-3.200,1980/01/25 05:51:40.640
1,1969,33703,-28.010,3.200,,-3.200,1980/01/25 05:51:40.703
1,1973,33765,-28.060,3.200,,-3.200,1980/01/25 05:51:40.765
1,1977,33828,-28.130,3.200,,-3.200,1980/01/25 05:51:40.828
1,1981,33890,-28.180,3.200,,-3.200,1980/01/25 05:51:40.890
1,1985,33953,-28.220,3.200,,-3.200,1980/01/25 05:51:40.953
1,1989,34015,-28.280,3.200,,-3.200,1980/01/25 05:51:41.015
1,1993,34093,-28.340,3.200,,-3.200,1980/01/25 05:51:41.093
1,1997,34156,-28.400,3.200,,-3.200,1980/01/25 05:51:41.156
1,2001,34218,-28.450,3.200,,-3.200,1980/01/25 05:51:41.218
1,2005,34281,-28.500,3.200,,-3.200,1980/01/25 05:51:41.281
1,2009,34359,-28.550,3.200,,-3.200,1980/01/25 05:51:41.359
1,2013,34437,-28.620,3.200,,-3.200,1980/01/25 05:51:41.437
1,2017,34500,-28.680,3.200,,-3.200,1980/01/25 05:51:41.500
1,2021,34578,-28.750,3.200,,-3.200,1980/01/25 05:51:41.578
1,2025,34640,-28.800,3.200,,-3.200,1980/01/25 05:51:41.640
1,2029,34703,-28.840,3.200,,-3.200,1980/01/25 05:51:41.703
1,2033,34781,-28.910,3.200,,-3.200,1980/01/25 05:51:41.781
1,2037,34843,-28.960,3.200,,-3.200,1980/01/25 05:51:41.843
1,2041,34906,-29.020,3.200,,-3.200,1980/01/25 05:51:41.906
1,2045,34968,-29.080,3.200,,-3.200,1980/01/25 05:51:41.968
1,2049,35046,-29.140,3.200,,-3.200,1980/01/25 05:51:42.046
1,2053,35109,-29.190,3.200,,-3.200,1980/01/25 05:51:42.109
1,2057,35171,-29.240,3.200,,-3.200,1980/01/25 05:51:42.171
1,2061,35234,-29.290,3.200,,-3.200,1980/01/25 05:51:42.234
1,2065,35296,-29.340,3.200,,-3.200,1980/01/25 05:51:42.296
1,2069,35375,-29.410,3.200,,-3.200,1980/01/25 05:51:42.375
1,2073,35453,-29.480,3.300,,-3.300,1980/01/25 05:51:42.453
1,2077,35531,-29.530,3.200,,-3.200,1980/01/25 05:51:42.531
1,2081,35593,-29.590,3.300,,-3.300,1980/01/25 05:51:42.593
1,2085,35656,-29.630,3.300,,-3.300,1980/01/25 05:51:42.656
1,2089,35718,-29.700,3.200,,-3.200,1980/01/25 05:51:42.718
1,2093,35781,-29.740,3.200,,-3.200,1980/01/25 05:51:42.781
1,2097,35843,-29.790,3.200,,-3.200,1980/01/25 05:51:42.843
1,2101,35906,-29.860,3.300,,-3.300,1980/01/25 05:51:42.906
1,2105,35968,-29.890,3.200,,-3.200,1980/01/25 05:51:42.968
1,2109,36031,-29.960,3.300,,-3.300,1980/01/25 05:51:43.031
1,2113,36093,-30.000,3.300,,-3.300,1980/01/25 05:51:43.093
1,2117,36171,-30.060,3.300,,-3.300,1980/01/25 05:51:43.171
1,2121,36234,-30.120,3.300,,-3.300,1980/01/25 05:51:43.234
1,2125,36296,-30.180,3.200,,-3.200,1980/01/25 05:51:43.296
1,2129,36359,-30.230,3.300,,-3.300,1980/01/25 05:51:43.359
1,2133,36421,-30.280,3.200,,-3.200,1980/01/25 05:51:43.421
1,2137,36484,-30.340,3.200,,-3.200,1980/01/25 05:51:43.484
1,2141,36546,-30.380,3.200,,-3.200,1980/01/25 05:51:43.546
1,2145,36625,-30.440,3.300,,-3.300,1980/01/25 05:51:43.625
1,2149,36687,-30.500,3.300,,-3.300,1980/01/25 05:51:43.687
1,2153,36859,-30.550,3.200,,-3.200,1980/01/25 05:51:43.859
1,2157,36921,-30.690,3.200,,-3.200,1980/01/25 05:51:43.921
1,2161,36984,-30.750,3.200,,-3.200,1980/01/25 05:51:43.984
1,2165,37046,-30.800,3.200,,-3.200,1980/01/25 05:51:44.046
1,2169,37109,-30.840,3.300,,-3.300,1980/01/25 05:51:44.109
1,2173,37171,-30.900,3.300,,-3.300,1980/01/25 05:51:44.171
1,2177,37234,-30.960,3.200,,-3.200,1980/01/25 05:51:44.234
1,2181,37312,-31.020,3.200,,-3.200,1980/01/25 05:51:44.312
1,2185,37375,-31.070,3.300,,-3.300,1980/01/25 05:51:44.375
1,2189,37437,-31.120,3.300,,-3.300,1980/01/25 05:51:44.437
1,2193,37515,-31.180,3.200,,-3.200,1980/01/25 05:51:44.515
1,2197,37593,-31.260,3.300,,-3.300,1980/01/25 05:51:44.593
1,2201,37656,-31.310,3.300,,-3.300,1980/01/25 05:51:44.656
1,2205,37718,-31.360,3.200,,-3.200,1980/01/25 05:51:44.718
1,2209,37796,-31.410,3.200,,-3.200,1980/01/25 05:51:44.796
1,2213,37875,-31.480,3.300,,-3.300,1980/01/25 05:51:44.875
1,2217,37953,-31.550,3.200,,-3.200,1980/01/25 05:51:44.953
1,2221,38015,-31.600,3.200,,-3.200,1980/01/25 05:51:45.015
1,2225,38078,-31.650,3.300,,-3.300,1980/01/25 05:51:45.078
1,2229,38140,-31.720,3.200,,-3.200,1980/01/25 05:51:45.140
1,2233,38203,-31.760,3.200,,-3.200,1980/01/25 05:51:45.203
1,2237,38265,-31.820,3.200,,-3.200,1980/01/25 05:51:45.265
1,2241,38328,-31.860,3.200,,-3.200,1980/01/25 05:51:45.328
1,2245,38406,-31.920,3.200,,-3.200,1980/01/25 05:51:45.406
1,2249,38468,-31.990,3.200,,-3.200,1980/01/25 05:51:45.468
1,2253,38546,-32.030,3.200,,-3.200,1980/01/25 05:51:45.546
1,2257,38609,-32.100,3.200,,-3.200,1980/01/25 05:51:45.609
1,2261,38671,-32.150,3.200,,-3.200,1980/01/25 05:51:45.671
1,2265,38734,-32.210,3.200,,-3.200,1980/01/25 05:51:45.734
1,2269,38796,-32.260,3.200,,-3.200,1980/01/25 05:51:45.796
1,2273,38859,-32.310,3.200,,-3.200,1980/01/25 05:51:45.859
1,2277,38921,-32.360,3.200,,-3.200,1980/01/25 05:51:45.921
1,2281,38984,-32.410,3.200,,-3.200,1980/01/25 05:51:45.984
1,2285,39046,-32.460,3.200,,-3.200,1980/01/25 05:51:46.046
1,2289,39109,-32.510,3.200,,-3.200,1980/01/25 05:51:46.109
1,2293,39171,-32.560,3.200,,-3.200,1980/01/25 05:51:46.171
1,2297,39250,-32.630,3.200,,-3.200,1980/01/25 05:51:46.250
1,2301,39312,-32.680,3.200,,-3.200,1980/01/25 05:51:46.312
1,2305,39375,-32.740,3.200,,-3.200,1980/01/25 05:51:46.375
1,2309,39437,-32.790,3.200,,-3.200,1980/01/25 05:51:46.437
1,2313,39500,-32.840,3.200,,-3.200,1980/01/25 05:51:46.500
1,2317,39562,-32.900,3.200,,-3.200,1980/01/25 05:51:46.562
1,2321,39625,-32.940,3.200,,-3.200,1980/01/25 05:51:46.625
1,2325,39687,-32.990,3.200,,-3.200,1980/01/25 05:51:46.687
1,2329,39750,-33.040,3.200,,-3.200,1980/01/25 05:51:46.750
1,2333,39828,-33.090,3.200,,-3.200,1980/01/25 05:51:46.828
1,2337,39890,-33.160,3.200,,-3.200,1980/01/25 05:51:46.890
1,2341,39953,-33.220,3.200,,-3.200,1980/01/25 05:51:46.953
1,2345,40031,-33.280,3.200,,-3.200,1980/01/25 05:51:47.031
1,2349,40093,-33.330,3.200,,-3.200,1980/01/25 05:51:47.093
1,2353,40250,-33.380,3.200,,-3.200,1980/01/25 05:51:47.250
1,2357,40328,-33.520,3.200,,-3.200,1980/01/25 05:51:47.328
1,2361,40390,-33.580,3.200,,-3.200,1980/01/25 05:51:47.390
1,2365,40453,-33.630,3.200,,-3.200,1980/01/25 05:51:47.453
1,2369,40531,-33.700,3.200,,-3.200,1980/01/25 05:51:47.531
1,2373,40593,-33.750,3.100,,-3.100,1980/01/25 05:51:47.593
1,2377,40656,-33.810,3.100,,-3.100,1980/01/25 05:51:47.656
1,2381,40734,-33.870,3.200,,-3.200,1980/01/25 05:51:47.734
1,2385,40796,-33.920,3.100,,-3.100,1980/01/25 05:51:47.796
1,2389,40859,-33.970,3.100,,-3.100,1980/01/25 05:51:47.859
1,2393,40937,-34.030,3.100,,-3.100,1980/01/25 05:51:47.937
1,2397,41000,-34.080,3.100,,-3.100,1980/01/25 05:51:48.000
1,2401,41078,-34.150,3.100,,-3.100,1980/01/25 05:51:48.078
1,2405,41140,-34.190,3.100,,-3.100,1980/01/25 05:51:48.140
1,2409,41218,-34.260,3.100,,-3.100,1980/01/25 05:51:48.218
1,2413,41281,-34.320,3.100,,-3.100,1980/01/25 05:51:48.281
1,2417,41359,-34.370,3.100,,-3.100,1980/01/25 05:51:48.359
1,2421,41421,-34.440,3.100,,-3.100,1980/01/25 05:51:48.421
1,2425,41484,-34.490,3.100,,-3.100,1980/01/25 05:51:48.484
1,2429,41562,-34.550,3.000,,-3.000,1980/01/25 05:51:48.562
1,2433,41625,-34.600,3.000,,-3.000,1980/01/25 05:51:48.625
1,2437,41687,-34.650,3.000,,-3.000,1980/01/25 05:51:48.687
1,2441,41765,-34.710,3.000,,-3.000,1980/01/25 05:51:48.765
1,2445,41828,-34.770,3.000,,-3.000,1980/01/25 05:51:48.828
1,2449,41906,-34.840,3.000,,-3.000,1980/01/25 05:51:48.906
1,2453,41968,-34.900,3.000,,-3.000,1980/01/25 05:51:48.968
1,2457,42031,-34.950,3.000,,-3.000,1980/01/25 05:51:49.031
1,2461,42093,-35.000,3.000,,-3.000,1980/01/25 05:51:49.093
1,2465,42156,-35.050,3.000,,-3.000,1980/01/25 05:51:49.156
1,2469,42218,-35.100,2.900,,-2.900,1980/01/25 05:51:49.218
1,2473,42296,-35.170,2.900,,-2.900,1980/01/25 05:51:49.296
1,2477,42359,-35.220,2.900,,-2.900,1980/01/25 05:51:49.359
1,2481,42421,-35.250,2.900,,-2.900,1980/01/25 05:51:49.421
1,2485,42484,-35.330,2.900,,-2.900,1980/01/25 05:51:49.484
1,2489,42546,-35.370,2.900,,-2.900,1980/01/25 05:51:49.546
1,2493,42625,-35.440,2.900,,-2.900,1980/01/25 05:51:49.625
1,2497,42703,-35.500,2.900,,-2.900,1980/01/25 05:51:49.703
1,2501,42765,-35.550,2.900,,-2.900,1980/01/25 05:51:49.765
1,2505,42828,-35.610,2.900,,-2.900,1980/01/25 05:51:49.828
1,2509,42890,-35.670,2.900,,-2.900,1980/01/25 05:51:49.890
1,2513,42953,-35.710,2.900,,-2.900,1980/01/25 05:51:49.953
1,2517,43015,-35.770,2.900,,-2.900,1980/01/25 05:51:50.015
1,2521,43093,-35.830,2.900,,-2.900,1980/01/25 05:51:50.093
1,2525,43156,-35.880,2.900,,-2.900,1980/01/25 05:51:50.156
1,2529,43218,-35.930,2.800,,-2.800,1980/01/25 05:51:50.218
1,2533,43296,-36.000,2.800,,-2.800,1980/01/25 05:51:50.296
1,2537,43359,-36.060,2.800,,-2.800,1980/01/25 05:51:50.359
1,2541,43421,-36.100,2.800,,-2.800,1980/01/25 05:51:50.421
1,2545,43484,-36.160,2.800,,-2.800,1980/01/25 05:51:50.484
1,2549,43546,-36.210,2.800,,-2.800,1980/01/25 05:51:50.546
1,2553,43718,-36.260,2.800,,-2.800,1980/01/25 05:51:50.718
1,2557,43781,-36.380,2.800,,-2.800,1980/01/25 05:51:50.781
1,2561,43843,-36.450,2.800,,-2.800,1980/01/25 05:51:50.843
1,2565,43906,-36.510,2.800,,-2.800,1980/01/25 05:51:50.906
1,2569,43968,-36.560,2.800,,-2.800,1980/01/25 05:51:50.968
1,2573,44031,-36.610,2.800,,-2.800,1980/01/25 05:51:51.031
1,2577,44109,-36.660,2.800,,-2.800,1980/01/25 05:51:51.109
1,2581,44171,-36.720,2.700,,-2.700,1980/01/25 05:51:51.171
1,2585,44234,-36.780,2.800,,-2.800,1980/01/25 05:51:51.234
1,2589,44296,-36.830,2.700,,-2.700,1980/01/25 05:51:51.296
1,2593,44390,-36.900,2.700,,-2.700,1980/01/25 05:51:51.390
1,2597,44453,-36.950,2.700,,-2.700,1980/01/25 05:51:51.453
1,2601,44515,-37.000,2.700,,-2.700,1980/01/25 05:51:51.515
1,2605,44578,-37.070,2.700,,-2.700,1980/01/25 05:51:51.578
1,2609,44640,-37.110,2.700,,-2.700,1980/01/25 05:51:51.640
1,2613,44703,-37.160,2.700,,-2.700,1980/01/25 05:51:51.703
1,2617,44781,-37.230,2.700,,-2.700,1980/01/25 05:51:51.781
1,2621,44843,-37.290,2.700,,-2.700,1980/01/25 05:51:51.843
1,2625,44937,-37.350,2.700,,-2.700,1980/01/25 05:51:51.937
1,2629,45015,-37.410,2.700,,-2.700,1980/01/25 05:51:52.015
1,2633,45093,-37.480,2.700,,-2.700,1980/01/25 05:51:52.093
1,2637,45156,-37.550,2.600,,-2.600,1980/01/25 05:51:52.156
1,2641,45218,-37.590,2.600,,-2.600,1980/01/25 05:51:52.218
1,2645,45312,-37.670,2.700,,-2.700,1980/01/25 05:51:52.312
1,2649,45375,-37.730,2.600,,-2.600,1980/01/25 05:51:52.375
1,2653,45437,-37.780,2.600,,-2.600,1980/01/25 05:51:52.437
1,2657,45500,-37.830,2.600,,-2.600,1980/01/25 05:51:52.500
1,2661,45562,-37.880,2.600,,-2.600,1980/01/25 05:51:52.562
1,2665,45625,-37.920,2.600,,-2.600,1980/01/25 05:51:52.625
1,2669,45687,-37.980,2.600,,-2.600,1980/01/25 05:51:52.687
1,2673,45750,-38.040,2.600,,-2.600,1980/01/25 05:51:52.750
1,2677,45812,-38.080,2.600,,-2.600,1980/01/25 05:51:52.812
1,2681,45890,-38.140,2.600,,-2.600,1980/01/25 05:51:52.890
1,2685,45953,-38.210,2.600,,-2.600,1980/01/25 05:51:52.953
1,2689,46031,-38.270,2.600,,-2.600,1980/01/25 05:51:53.031
1,2693,46093,-38.330,2.600,,-2.600,1980/01/25 05:51:53.093
1,2697,46156,-38.370,2.500,,-2.500,1980/01/25 05:51:53.156
1,2701,46234,-38.450,2.600,,-2.600,1980/01/25 05:51:53.234
1,2705,46328,-38.510,2.500,,-2.500,1980/01/25 05:51:53.328
1,2709,46390,-38.560,2.500,,-2.500,1980/01/25 05:51:53.390
1,2713,46468,-38.630,2.500,,-2.500,1980/01/25 05:51:53.468
1,2717,46531,-38.690,2.500,,-2.500,1980/01/25 05:51:53.531
1,2721,46593,-38.730,2.500,,-2.500,1980/01/25 05:51:53.593
1,2725,46656,-38.800,2.500,,-2.500,1980/01/25 05:51:53.656
1,2729,46718,-38.840,2.500,,-2.500,1980/01/25 05:51:53.718
1,2733,46781,-38.900,2.500,,-2.500,1980/01/25 05:51:53.781
1,2737,46843,-38.950,2.500,,-2.500,1980/01/25 05:51:53.843
1,2741,46906,-38.990,2.500,,-2.500,1980/01/25 05:51:53.906
1,2745,46984,-39.050,2.500,,-2.500,1980/01/25 05:51:53.984
1,2749,47046,-39.120,2.500,,-2.500,1980/01/25 05:51:54.046
1,2753,47218,-39.170,2.500,,-2.500,1980/01/25 05:51:54.218
1,2757,47312,-39.330,2.500,,-2.500,1980/01/25 05:51:54.312
1,2761,47390,-39.390,2.400,,-2.400,1980/01/25 05:51:54.390
1,2765,47453,-39.450,2.400,,-2.400,1980/01/25 05:51:54.453
1,2769,47515,-39.510,2.400,,-2.400,1980/01/25 05:51:54.515
1,2773,47578,-39.550,2.400,,-2.400,1980/01/25 05:51:54.578
1,2777,47640,-39.620,2.400,,-2.400,1980/01/25 05:51:54.640
1,2781,47703,-39.670,2.400,,-2.400,1980/01/25 05:51:54.703
1,2785,47765,-39.710,2.400,,-2.400,1980/01/25 05:51:54.765
1,2789,47828,-39.770,2.400,,-2.400,1980/01/25 05:51:54.828
1,2793,47906,-39.830,2.400,,-2.400,1980/01/25 05:51:54.906
1,2797,47968,-39.880,2.400,,-2.400,1980/01/25 05:51:54.968
1,2801,48031,-39.940,2.400,,-2.400,1980/01/25 05:51:55.031
1,2805,48093,-39.980,2.300,,-2.300,1980/01/25 05:51:55.093
1,2809,48156,-40.040,2.300,,-2.300,1980/01/25 05:51:55.156
1,2813,48234,-40.090,2.300,,-2.300,1980/01/25 05:51:55.234
1,2817,48296,-40.150,2.300,,-2.300,1980/01/25 05:51:55.296
1,2821,48359,-40.210,2.300,,-2.300,1980/01/25 05:51:55.359
1,2825,48421,-40.270,2.300,,-2.300,1980/01/25 05:51:55.421
1,2829,48484,-40.310,2.300,,-2.300,1980/01/25 05:51:55.484
1,2833,48562,-40.370,2.300,,-2.300,1980/01/25 05:51:55.562
1,2837,48625,-40.430,2.300,,-2.300,1980/01/25 05:51:55.625
1,2841,48687,-40.470,2.300,,-2.300,1980/01/25 05:51:55.687
1,2845,48750,-40.530,2.300,,-2.300,1980/01/25 05:51:55.750
1,2849,48828,-40.590,2.300,,-2.300,1980/01/25 05:51:55.828
1,2853,48906,-40.660,2.200,,-2.200,1980/01/25 05:51:55.906
1,2857,48968,-40.710,2.200,,-2.200,1980/01/25 05:51:55.968
1,2861,49031,-40.770,2.200,,-2.200,1980/01/25 05:51:56.031
1,2865,49093,-40.820,2.200,,-2.200,1980/01/25 05:51:56.093
1,2869,49156,-40.870,2.200,,-2.200,1980/01/25 05:51:56.156
1,2873,49218,-40.930,2.200,,-2.200,1980/01/25 05:51:56.218
1,2877,49281,-40.980,2.200,,-2.200,1980/01/25 05:51:56.281
1,2881,49343,-41.020,2.200,,-2.200,1980/01/25 05:51:56.343
1,2885,49406,-41.080,2.200,,-2.200,1980/01/25 05:51:56.406
1,2889,49468,-41.140,2.200,,-2.200,1980/01/25 05:51:56.468
1,2893,49546,-41.200,2.200,,-2.200,1980/01/25 05:51:56.546
1,2897,49609,-41.240,2.200,,-2.200,1980/01/25 05:51:56.609
1,2901,49671,-41.300,2.100,,-2.100,1980/01/25 05:51:56.671
1,2905,49734,-41.350,2.100,,-2.100,1980/01/25 05:51:56.734
1,2909,49812,-41.410,2.100,,-2.100,1980/01/25 05:51:56.812
1,2913,49890,-41.480,2.100,,-2.100,1980/01/25 05:51:56.890
1,2917,49953,-41.530,2.100,,-2.100,1980/01/25 05:51:56.953
1,2921,50031,-41.590,2.100,,-2.100,1980/01/25 05:51:57.031
1,2925,50093,-41.650,2.100,,-2.100,1980/01/25 05:51:57.093
1,2929,50156,-41.690,2.100,,-2.100,1980/01/25 05:51:57.156
1,2933,50218,-41.750,2.100,,-2.100,1980/01/25 05:51:57.218
1,2937,50281,-41.810,2.100,,-2.100,1980/01/25 05:51:57.281
1,2941,50343,-41.860,2.100,,-2.100,1980/01/25 05:51:57.343
1,2945,50406,-41.910,2.100,,-2.100,1980/01/25 05:51:57.406
1,2949,50468,-41.970,2.000,,-2.000,1980/01/25 05:51:57.468
1,2953,50656,-42.020,2.000,,-2.000,1980/01/25 05:51:57.656
1,2957,50718,-42.170,2.000,,-2.000,1980/01/25 05:51:57.718
1,2961,50781,-42.220,2.000,,-2.000,1980/01/25 05:51:57.781
1,2965,50859,-42.290,2.000,,-2.000,1980/01/25 05:51:57.859
1,2969,50921,-42.340,2.000,,-2.000,1980/01/25 05:51:57.921
1,2973,51000,-42.400,2.000,,-2.000,1980/01/25 05:51:58.000
1,2977,51062,-42.460,2.000,,-2.000,1980/01/25 05:51:58.062
1,2981,51125,-42.510,2.000,,-2.000,1980/01/25 05:51:58.125
1,2985,51187,-42.560,2.000,,-2.000,1980/01/25 05:51:58.187
1,2989,51250,-42.610,1.900,,-1.900,1980/01/25 05:51:58.250
1,2993,51312,-42.660,1.900,,-1.900,1980/01/25 05:51:58.312
1,2997,51375,-42.710,1.900,,-1.900,1980/01/25 05:51:58.375
1,3001,51437,-42.760,1.900,,-1.900,1980/01/25 05:51:58.437
1,3005,51515,-42.830,1.900,,-1.900,1980/01/25 05:51:58.515
1,3009,51578,-42.880,1.900,,-1.900,1980/01/25 05:51:58.578
1,3013,51640,-42.930,1.900,,-1.900,1980/01/25 05:51:58.640
1,3017,51703,-42.990,1.900,,-1.900,1980/01/25 05:51:58.703
1,3021,51765,-43.050,1.900,,-1.900,1980/01/25 05:51:58.765
1,3025,51843,-43.100,1.900,,-1.900,1980/01/25 05:51:58.843
1,3029,51906,-43.160,1.800,,-1.800,1980/01/25 05:51:58.906
1,3033,51968,-43.210,1.800,,-1.800,1980/01/25 05:51:58.968
1,3037,52031,-43.260,1.800,,-1.800,1980/01/25 05:51:59.031
1,3041,52125,-43.330,1.800,,-1.800,1980/01/25 05:51:59.125
1,3045,52203,-43.390,1.800,,-1.800,1980/01/25 05:51:59.203
1,3049,52265,-43.450,1.800,,-1.800,1980/01/25 05:51:59.265
1,3053,52328,-43.510,1.800,,-1.800,1980/01/25 05:51:59.328
1,3057,52406,-43.570,1.800,,-1.800,1980/01/25 05:51:59.406
1,3061,52484,-43.630,1.800,,-1.800,1980/01/25 05:51:59.484
1,3065,52546,-43.690,1.700,,-1.700,1980/01/25 05:51:59.546
1,3069,52625,-43.750,1.700,,-1.700,1980/01/25 05:51:59.625
1,3073,52703,-43.810,1.700,,-1.700,1980/01/25 05:51:59.703
1,3077,52781,-43.890,1.700,,-1.700,1980/01/25 05:51:59.781
1,3081,52843,-43.930,1.700,,-1.700,1980/01/25 05:51:59.843
1,3085,52906,-43.980,1.700,,-1.700,1980/01/25 05:51:59.906
1,3089,52984,-44.060,1.700,,-1.700,1980/01/25 05:51:59.984
1,3093,53046,-44.110,1.700,,-1.700,1980/01/25 05:52:00.046
1,3097,53125,-44.170,1.700,,-1.700,1980/01/25 05:52:00.125
1,3101,53203,-44.220,1.600,,-1.600,1980/01/25 05:52:00.203
1,3105,53281,-44.300,1.600,,-1.600,1980/01/25 05:52:00.281
1,3109,53359,-44.370,1.600,,-1.600,1980/01/25 05:52:00.359
1,3113,53437,-44.420,1.600,,-1.600,1980/01/25 05:52:00.437
1,3117,53500,-44.480,1.600,,-1.600,1980/01/25 05:52:00.500
1,3121,53562,-44.530,1.600,,-1.600,1980/01/25 05:52:00.562
1,3125,53625,-44.580,1.600,,-1.600,1980/01/25 05:52:00.625
1,3129,53687,-44.640,1.600,,-1.600,1980/01/25 05:52:00.687
1,3133,53750,-44.690,1.600,,-1.600,1980/01/25 05:52:00.750
1,3137,53828,-44.760,1.500,,-1.500,1980/01/25 05:52:00.828
1,3141,53890,-44.810,1.500,,-1.500,1980/01/25 05:52:00.890
1,3145,53968,-44.860,1.500,,-1.500,1980/01/25 05:52:00.968
1,3149,54031,-44.910,1.500,,-1.500,1980/01/25 05:52:01.031
1,3153,54218,-44.970,1.500,,-1.500,1980/01/25 05:52:01.218
1,3157,54312,-45.150,1.400,,-1.400,1980/01/25 05:52:01.312
1,3161,54390,-45.210,1.400,,-1.400,1980/01/25 05:52:01.390
1,3165,54453,-45.270,1.400,,-1.400,1980/01/25 05:52:01.453
1,3169,54515,-45.330,1.400,,-1.400,1980/01/25 05:52:01.515
1,3173,54578,-45.390,1.400,,-1.400,1980/01/25 05:52:01.578
1,3177,54640,-45.440,1.400,,-1.400,1980/01/25 05:52:01.640
1,3181,54703,-45.480,1.400,,-1.400,1980/01/25 05:52:01.703
1,3185,54765,-45.540,1.400,,-1.400,1980/01/25 05:52:01.765
1,3189,54828,-45.590,1.400,,-1.400,1980/01/25 05:52:01.828
1,3193,54890,-45.640,1.300,,-1.300,1980/01/25 05:52:01.890
1,3197,54953,-45.690,1.300,,-1.300,1980/01/25 05:52:01.953
1,3201,55015,-45.750,1.300,,-1.300,1980/01/25 05:52:02.015
1,3205,55078,-45.800,1.300,,-1.300,1980/01/25 05:52:02.078
1,3209,55140,-45.850,1.300,,-1.300,1980/01/25 05:52:02.140
1,3213,55203,-45.890,1.300,,-1.300,1980/01/25 05:52:02.203
1,3217,55265,-45.940,1.300,,-1.300,1980/01/25 05:52:02.265
1,3221,55328,-46.000,1.300,,-1.300,1980/01/25 05:52:02.328
1,3225,55406,-46.080,1.200,,-1.200,1980/01/25 05:52:02.406
1,3229,55468,-46.120,1.200,,-1.200,1980/01/25 05:52:02.468
1,3233,55531,-46.180,1.200,,-1.200,1980/01/25 05:52:02.531
1,3237,55593,-46.220,1.200,,-1.200,1980/01/25 05:52:02.593
1,3241,55656,-46.280,1.200,,-1.200,1980/01/25 05:52:02.656
1,3245,55718,-46.330,1.200,,-1.200,1980/01/25 05:52:02.718
1,3249,55781,-46.380,1.200,,-1.200,1980/01/25 05:52:02.781
1,3253,55859,-46.450,1.200,,-1.200,1980/01/25 05:52:02.859
1,3257,55921,-46.500,1.200,,-1.200,1980/01/25 05:52:02.921
1,3261,56000,-46.550,1.100,,-1.100,1980/01/25 05:52:03.000
1,3265,56078,-46.610,1.100,,-1.100,1980/01/25 05:52:03.078
1,3269,56156,-46.690,1.100,,-1.100,1980/01/25 05:52:03.156
1,3273,56218,-46.750,1.100,,-1.100,1980/01/25 05:52:03.218
1,3277,56281,-46.800,1.100,,-1.100,1980/01/25 05:52:03.281
1,3281,56343,-46.860,1.100,,-1.100,1980/01/25 05:52:03.343
1,3285,56406,-46.910,1.100,,-1.100,1980/01/25 05:52:03.406
1,3289,56468,-46.950,1.000,,-1.000,1980/01/25 05:52:03.468
1,3293,56531,-47.000,1.000,,-1.000,1980/01/25 05:52:03.531
1,3297,56593,-47.060,1.000,,-1.000,1980/01/25 05:52:03.593
1,3301,56671,-47.120,1.000,,-1.000,1980/01/25 05:52:03.671
1,3305,56734,-47.180,1.000,,-1.000,1980/01/25 05:52:03.734
1,3309,56796,-47.220,1.000,,-1.000,1980/01/25 05:52:03.796
1,3313,56859,-47.280,0.900,,-0.900,1980/01/25 05:52:03.859
1,3317,56921,-47.330,0.900,,-0.900,1980/01/25 05:52:03.921
1,3321,56984,-47.380,0.900,,-0.900,1980/01/25 05:52:03.984
1,3325,57046,-47.430,0.900,,-0.900,1980/01/25 05:52:04.046
1,3329,57109,-47.490,0.800,,-0.800,1980/01/25 05:52:04.109
1,3333,57171,-47.540,0.800,,-0.800,1980/01/25 05:52:04.171
1,3337,57250,-47.590,0.800,,-0.800,1980/01/25 05:52:04.250
1,3341,57312,-47.630,0.700,,-0.700,1980/01/25 05:52:04.312
1,3345,57375,-47.700,0.700,,-0.700,1980/01/25 05:52:04.375
1,3349,57437,-47.750,0.600,,-0.600,1980/01/25 05:52:04.437
1,3353,57625,-47.800,0.500,,-0.500,1980/01/25 05:52:04.625
1,3357,57703,-47.970,,0.200,0.200,1980/01/25 05:52:04.703
1,3361,57781,-48.040,,0.200,0.200,1980/01/25 05:52:04.781
1,3365,57843,-48.100,,0.200,0.200,1980/01/25 05:52:04.843
1,3369,57906,-48.140,,0.200,0.200,1980/01/25 05:52:04.906
1,3373,57968,-48.180,,0.200,0.200,1980/01/25 05:52:04.968
1,3377,58031,-48.260,,0.200,0.200,1980/01/25 05:52:05.031
1,3381,58109,-48.280,,0.200,0.200,1980/01/25 05:52:05.109
1,3382,58125,-48.280,,0.200,0.200,1980/01/25 05:52:05.125