File: 1st-Semester-Fall-2021/FEC1/LDPE Tensile Strength Tests/Team 3 LDPE 40 2.csv
Cycle,Test Point,Time (ms),Distance (mm),Up (N),Down (N),Force Data (N),Date / Time
1,1,0,-4.600,,,0.000,1980/01/25 05:53:40.140
1,12,203,-4.740,,,0.000,1980/01/25 05:53:40.343
1,23,375,-4.850,0.200,,-0.200,1980/01/25 05:53:40.515
1,34,563,-4.970,0.300,,-0.300,1980/01/25 05:53:40.703
1,45,797,-5.130,0.500,,-0.500,1980/01/25 05:53:40.937
1,56,1016,-5.280,0.800,,-0.800,1980/01/25 05:53:41.156
1,67,1203,-5.400,1.000,,-1.000,1980/01/25 05:53:41.343
1,78,1391,-5.530,1.200,,-1.200,1980/01/25 05:53:41.531
1,89,1563,-5.650,1.400,,-1.400,1980/01/25 05:53:41.703
1,100,1781,-5.790,1.500,,-1.500,1980/01/25 05:53:41.921
1,111,1953,-5.910,1.700,,-1.700,1980/01/25 05:53:42.093
1,122,2172,-6.040,1.800,,-1.800,1980/01/25 05:53:42.312
1,133,2375,-6.180,2.000,,-2.000,1980/01/25 05:53:42.515
1,144,2578,-6.310,2.100,,-2.100,1980/01/25 05:53:42.718
1,155,2750,-6.440,2.300,,-2.300,1980/01/25 05:53:42.890
1,166,2938,-6.560,2.400,,-2.400,1980/01/25 05:53:43.078
1,177,3188,-6.720,2.500,,-2.500,1980/01/25 05:53:43.328
1,188,3406,-6.880,2.700,,-2.700,1980/01/25 05:53:43.546
1,199,3578,-6.990,2.800,,-2.800,1980/01/25 05:53:43.718
1,210,3781,-7.120,2.900,,-2.900,1980/01/25 05:53:43.921
1,221,3969,-7.250,3.000,,-3.000,1980/01/25 05:53:44.109
1,232,4141,-7.360,3.000,,-3.000,1980/01/25 05:53:44.281
1,243,4313,-7.480,3.100,,-3.100,1980/01/25 05:53:44.453
1,254,4485,-7.590,3.200,,-3.200,1980/01/25 05:53:44.625
1,265,4656,-7.710,3.300,,-3.300,1980/01/25 05:53:44.796
1,276,4860,-7.840,3.400,,-3.400,1980/01/25 05:53:45.000
1,287,5047,-7.960,3.400,,-3.400,1980/01/25 05:53:45.187
1,298,5219,-8.080,3.500,,-3.500,1980/01/25 05:53:45.359
1,309,5391,-8.190,3.500,,-3.500,1980/01/25 05:53:45.531
1,320,5578,-8.310,3.600,,-3.600,1980/01/25 05:53:45.718
1,331,5781,-8.450,3.600,,-3.600,1980/01/25 05:53:45.921
1,342,5985,-8.590,3.700,,-3.700,1980/01/25 05:53:46.125
1,353,6156,-8.700,3.700,,-3.700,1980/01/25 05:53:46.296
1,364,6344,-8.820,3.800,,-3.800,1980/01/25 05:53:46.484
1,375,6578,-8.980,3.800,,-3.800,1980/01/25 05:53:46.718
1,386,6750,-9.100,3.900,,-3.900,1980/01/25 05:53:46.890
1,397,6969,-9.240,3.900,,-3.900,1980/01/25 05:53:47.109
1,408,7141,-9.360,3.900,,-3.900,1980/01/25 05:53:47.281
1,419,7328,-9.480,4.000,,-4.000,1980/01/25 05:53:47.468
1,430,7516,-9.610,4.000,,-4.000,1980/01/25 05:53:47.656
1,441,7688,-9.720,4.000,,-4.000,1980/01/25 05:53:47.828
1,452,7875,-9.840,4.100,,-4.100,1980/01/25 05:53:48.015
1,463,8047,-9.950,4.100,,-4.100,1980/01/25 05:53:48.187
1,474,8235,-10.080,4.100,,-4.100,1980/01/25 05:53:48.375
1,485,8406,-10.200,4.100,,-4.100,1980/01/25 05:53:48.546
1,496,8594,-10.320,4.100,,-4.100,1980/01/25 05:53:48.734
1,507,8781,-10.450,4.200,,-4.200,1980/01/25 05:53:48.921
1,518,8953,-10.560,4.200,,-4.200,1980/01/25 05:53:49.093
1,529,9125,-10.680,4.200,,-4.200,1980/01/25 05:53:49.265
1,540,9297,-10.790,4.200,,-4.200,1980/01/25 05:53:49.437
1,551,9485,-10.920,4.200,,-4.200,1980/01/25 05:53:49.625
1,562,9719,-11.070,4.200,,-4.200,1980/01/25 05:53:49.859
1,573,9953,-11.230,4.300,,-4.300,1980/01/25 05:53:50.093
1,584,10156,-11.360,4.300,,-4.300,1980/01/25 05:53:50.296
1,595,10328,-11.480,4.300,,-4.300,1980/01/25 05:53:50.468
1,606,10516,-11.600,4.300,,-4.300,1980/01/25 05:53:50.656
1,617,10719,-11.740,4.300,,-4.300,1980/01/25 05:53:50.859
1,628,10906,-11.870,4.300,,-4.300,1980/01/25 05:53:51.046
1,639,11078,-11.970,4.300,,-4.300,1980/01/25 05:53:51.218
1,650,11281,-12.110,4.300,,-4.300,1980/01/25 05:53:51.421
1,661,11453,-12.230,4.300,,-4.300,1980/01/25 05:53:51.593
1,672,11625,-12.340,4.300,,-4.300,1980/01/25 05:53:51.765
1,683,11797,-12.450,4.300,,-4.300,1980/01/25 05:53:51.937
1,694,11985,-12.580,4.300,,-4.300,1980/01/25 05:53:52.125
1,705,12172,-12.700,4.300,,-4.300,1980/01/25 05:53:52.312
1,716,12344,-12.820,4.300,,-4.300,1980/01/25 05:53:52.484
1,727,12516,-12.940,4.300,,-4.300,1980/01/25 05:53:52.656
1,738,12719,-13.080,4.300,,-4.300,1980/01/25 05:53:52.859
1,749,12891,-13.190,4.300,,-4.300,1980/01/25 05:53:53.031
1,760,13078,-13.300,4.300,,-4.300,1980/01/25 05:53:53.218
1,771,13313,-13.430,4.300,,-4.300,1980/01/25 05:53:53.453
1,782,13531,-13.600,4.300,,-4.300,1980/01/25 05:53:53.671
1,793,13719,-13.730,4.300,,-4.300,1980/01/25 05:53:53.859
1,804,13891,-13.850,4.300,,-4.300,1980/01/25 05:53:54.031
1,815,14063,-13.960,4.300,,-4.300,1980/01/25 05:53:54.203
1,826,14235,-14.080,4.300,,-4.300,1980/01/25 05:53:54.375
1,837,14406,-14.190,4.300,,-4.300,1980/01/25 05:53:54.546
1,848,14594,-14.320,4.300,,-4.300,1980/01/25 05:53:54.734
1,859,14797,-14.460,4.300,,-4.300,1980/01/25 05:53:54.937
1,870,14985,-14.580,4.300,,-4.300,1980/01/25 05:53:55.125
1,881,15172,-14.700,4.300,,-4.300,1980/01/25 05:53:55.312
1,892,15360,-14.830,4.300,,-4.300,1980/01/25 05:53:55.500
1,903,15531,-14.940,4.300,,-4.300,1980/01/25 05:53:55.671
1,914,15719,-15.060,4.200,,-4.200,1980/01/25 05:53:55.859
1,925,15891,-15.180,4.200,,-4.200,1980/01/25 05:53:56.031
1,936,16078,-15.310,4.200,,-4.200,1980/01/25 05:53:56.218
1,947,16250,-15.420,4.200,,-4.200,1980/01/25 05:53:56.390
1,958,16438,-15.540,4.200,,-4.200,1980/01/25 05:53:56.578
1,969,16610,-15.660,4.200,,-4.200,1980/01/25 05:53:56.750
1,980,16844,-15.810,4.200,,-4.200,1980/01/25 05:53:56.984
1,991,17016,-15.930,4.200,,-4.200,1980/01/25 05:53:57.156
1,1002,17188,-16.040,4.200,,-4.200,1980/01/25 05:53:57.328
1,1013,17360,-16.150,4.100,,-4.100,1980/01/25 05:53:57.500
1,1024,17547,-16.290,4.200,,-4.200,1980/01/25 05:53:57.687
1,1035,17750,-16.410,4.200,,-4.200,1980/01/25 05:53:57.890
1,1046,17922,-16.530,4.200,,-4.200,1980/01/25 05:53:58.062
1,1057,18094,-16.650,4.200,,-4.200,1980/01/25 05:53:58.234
1,1068,18266,-16.760,4.100,,-4.100,1980/01/25 05:53:58.406
1,1079,18469,-16.900,4.100,,-4.100,1980/01/25 05:53:58.609
1,1090,18672,-17.030,4.200,,-4.200,1980/01/25 05:53:58.812
1,1101,18844,-17.150,4.100,,-4.100,1980/01/25 05:53:58.984
1,1112,19016,-17.260,4.100,,-4.100,1980/01/25 05:53:59.156
1,1123,19203,-17.390,4.100,,-4.100,1980/01/25 05:53:59.343
1,1134,19375,-17.510,4.100,,-4.100,1980/01/25 05:53:59.515
1,1145,19547,-17.610,4.100,,-4.100,1980/01/25 05:53:59.687
1,1156,19766,-17.750,4.100,,-4.100,1980/01/25 05:53:59.906
1,1167,19938,-17.870,4.100,,-4.100,1980/01/25 05:54:00.078
1,1178,20172,-18.030,4.100,,-4.100,1980/01/25 05:54:00.312
1,1189,20360,-18.150,4.100,,-4.100,1980/01/25 05:54:00.500
1,1200,20531,-18.270,4.100,,-4.100,1980/01/25 05:54:00.671
1,1211,20719,-18.400,4.000,,-4.000,1980/01/25 05:54:00.859
1,1222,20922,-18.520,4.100,,-4.100,1980/01/25 05:54:01.062
1,1233,21094,-18.640,4.000,,-4.000,1980/01/25 05:54:01.234
1,1244,21297,-18.780,4.000,,-4.000,1980/01/25 05:54:01.437
1,1255,21469,-18.900,4.000,,-4.000,1980/01/25 05:54:01.609
1,1266,21656,-19.020,4.000,,-4.000,1980/01/25 05:54:01.796
1,1277,21828,-19.140,4.000,,-4.000,1980/01/25 05:54:01.968
1,1288,22000,-19.260,4.100,,-4.100,1980/01/25 05:54:02.140
1,1299,22188,-19.370,4.000,,-4.000,1980/01/25 05:54:02.328
1,1310,22375,-19.500,4.000,,-4.000,1980/01/25 05:54:02.515
1,1321,22547,-19.610,4.000,,-4.000,1980/01/25 05:54:02.687
1,1332,22719,-19.730,4.000,,-4.000,1980/01/25 05:54:02.859
1,1343,22922,-19.860,4.000,,-4.000,1980/01/25 05:54:03.062
1,1354,23094,-19.970,4.000,,-4.000,1980/01/25 05:54:03.234
1,1365,23297,-20.110,4.000,,-4.000,1980/01/25 05:54:03.437
1,1376,23547,-20.270,4.000,,-4.000,1980/01/25 05:54:03.687
1,1387,23719,-20.390,4.000,,-4.000,1980/01/25 05:54:03.859
1,1398,23891,-20.510,4.000,,-4.000,1980/01/25 05:54:04.031
1,1409,24063,-20.610,4.000,,-4.000,1980/01/25 05:54:04.203
1,1420,24250,-20.740,4.000,,-4.000,1980/01/25 05:54:04.390
1,1431,24422,-20.860,4.000,,-4.000,1980/01/25 05:54:04.562
1,1442,24594,-20.980,4.000,,-4.000,1980/01/25 05:54:04.734
1,1453,24781,-21.100,4.000,,-4.000,1980/01/25 05:54:04.921
1,1464,24969,-21.230,4.000,,-4.000,1980/01/25 05:54:05.109
1,1475,25141,-21.340,4.000,,-4.000,1980/01/25 05:54:05.281
1,1486,25375,-21.490,4.000,,-4.000,1980/01/25 05:54:05.515
1,1497,25547,-21.610,4.000,,-4.000,1980/01/25 05:54:05.687
1,1508,25719,-21.730,4.000,,-4.000,1980/01/25 05:54:05.859
1,1519,25891,-21.830,4.000,,-4.000,1980/01/25 05:54:06.031
1,1530,26110,-21.980,4.000,,-4.000,1980/01/25 05:54:06.250
1,1541,26297,-22.110,4.000,,-4.000,1980/01/25 05:54:06.437
1,1552,26485,-22.230,4.000,,-4.000,1980/01/25 05:54:06.625
1,1563,26672,-22.360,4.000,,-4.000,1980/01/25 05:54:06.812
1,1574,26953,-22.540,4.000,,-4.000,1980/01/25 05:54:07.093
1,1585,27141,-22.680,4.000,,-4.000,1980/01/25 05:54:07.281
1,1596,27328,-22.800,4.000,,-4.000,1980/01/25 05:54:07.468
1,1607,27500,-22.920,4.000,,-4.000,1980/01/25 05:54:07.640
1,1618,27688,-23.040,4.000,,-4.000,1980/01/25 05:54:07.828
1,1629,27906,-23.160,3.900,,-3.900,1980/01/25 05:54:08.046
1,1640,28078,-23.300,4.000,,-4.000,1980/01/25 05:54:08.218
1,1651,28250,-23.420,4.000,,-4.000,1980/01/25 05:54:08.390
1,1662,28422,-23.520,3.900,,-3.900,1980/01/25 05:54:08.562
1,1673,28656,-23.680,4.000,,-4.000,1980/01/25 05:54:08.796
1,1684,28828,-23.790,3.900,,-3.900,1980/01/25 05:54:08.968
1,1695,29000,-23.910,3.900,,-3.900,1980/01/25 05:54:09.140
1,1706,29188,-24.020,3.900,,-3.900,1980/01/25 05:54:09.328
1,1717,29391,-24.170,3.900,,-3.900,1980/01/25 05:54:09.531
1,1728,29563,-24.290,3.900,,-3.900,1980/01/25 05:54:09.703
1,1739,29750,-24.410,4.000,,-4.000,1980/01/25 05:54:09.890
1,1750,29938,-24.540,4.000,,-4.000,1980/01/25 05:54:10.078
1,1761,30110,-24.640,4.000,,-4.000,1980/01/25 05:54:10.250
1,1772,30360,-24.760,3.900,,-3.900,1980/01/25 05:54:10.500
1,1783,30547,-24.940,4.000,,-4.000,1980/01/25 05:54:10.687
1,1794,30735,-25.060,3.900,,-3.900,1980/01/25 05:54:10.875
1,1805,30922,-25.190,4.000,,-4.000,1980/01/25 05:54:11.062
1,1816,31125,-25.320,4.000,,-4.000,1980/01/25 05:54:11.265
1,1827,31297,-25.440,4.000,,-4.000,1980/01/25 05:54:11.437
1,1838,31469,-25.560,3.900,,-3.900,1980/01/25 05:54:11.609
1,1849,31656,-25.680,4.000,,-4.000,1980/01/25 05:54:11.796
1,1860,31860,-25.810,3.900,,-3.900,1980/01/25 05:54:12.000
1,1871,32031,-25.930,3.900,,-3.900,1980/01/25 05:54:12.171
1,1882,32203,-26.050,3.900,,-3.900,1980/01/25 05:54:12.343
1,1893,32391,-26.170,3.900,,-3.900,1980/01/25 05:54:12.531
1,1904,32578,-26.290,3.900,,-3.900,1980/01/25 05:54:12.718
1,1915,32766,-26.420,3.900,,-3.900,1980/01/25 05:54:12.906
1,1926,32953,-26.550,3.900,,-3.900,1980/01/25 05:54:13.093
1,1937,33141,-26.670,3.900,,-3.900,1980/01/25 05:54:13.281
1,1948,33313,-26.780,4.000,,-4.000,1980/01/25 05:54:13.453
1,1959,33500,-26.900,3.900,,-3.900,1980/01/25 05:54:13.640
1,1970,33672,-27.000,3.900,,-3.900,1980/01/25 05:54:13.812
1,1981,33938,-27.190,4.000,,-4.000,1980/01/25 05:54:14.078
1,1992,34110,-27.310,4.000,,-4.000,1980/01/25 05:54:14.250
1,2003,34297,-27.430,4.000,,-4.000,1980/01/25 05:54:14.437
1,2014,34469,-27.560,3.900,,-3.900,1980/01/25 05:54:14.609
1,2025,34641,-27.670,3.900,,-3.900,1980/01/25 05:54:14.781
1,2036,34828,-27.790,3.900,,-3.900,1980/01/25 05:54:14.968
1,2047,35016,-27.920,3.900,,-3.900,1980/01/25 05:54:15.156
1,2058,35203,-28.030,3.900,,-3.900,1980/01/25 05:54:15.343
1,2069,35375,-28.150,3.900,,-3.900,1980/01/25 05:54:15.515
1,2080,35563,-28.270,3.900,,-3.900,1980/01/25 05:54:15.703
1,2091,35750,-28.400,4.000,,-4.000,1980/01/25 05:54:15.890
1,2102,35938,-28.530,3.900,,-3.900,1980/01/25 05:54:16.078
1,2113,36125,-28.640,3.900,,-3.900,1980/01/25 05:54:16.265
1,2124,36328,-28.790,3.900,,-3.900,1980/01/25 05:54:16.468
1,2135,36516,-28.920,3.900,,-3.900,1980/01/25 05:54:16.656
1,2146,36688,-29.030,3.900,,-3.900,1980/01/25 05:54:16.828
1,2157,36891,-29.160,3.900,,-3.900,1980/01/25 05:54:17.031
1,2168,37078,-29.280,3.900,,-3.900,1980/01/25 05:54:17.218
1,2179,37328,-29.460,3.900,,-3.900,1980/01/25 05:54:17.468
1,2190,37516,-29.580,3.900,,-3.900,1980/01/25 05:54:17.656
1,2201,37703,-29.700,3.900,,-3.900,1980/01/25 05:54:17.843
1,2212,37875,-29.820,3.900,,-3.900,1980/01/25 05:54:18.015
1,2223,38047,-29.930,3.900,,-3.900,1980/01/25 05:54:18.187
1,2234,38235,-30.050,3.900,,-3.900,1980/01/25 05:54:18.375
1,2245,38406,-30.180,3.900,,-3.900,1980/01/25 05:54:18.546
1,2256,38578,-30.290,3.900,,-3.900,1980/01/25 05:54:18.718
1,2267,38781,-30.410,3.900,,-3.900,1980/01/25 05:54:18.921
1,2278,38953,-30.540,3.900,,-3.900,1980/01/25 05:54:19.093
1,2289,39141,-30.670,3.900,,-3.900,1980/01/25 05:54:19.281
1,2300,39313,-30.780,3.900,,-3.900,1980/01/25 05:54:19.453
1,2311,39500,-30.900,3.900,,-3.900,1980/01/25 05:54:19.640
1,2322,39688,-31.020,3.900,,-3.900,1980/01/25 05:54:19.828
1,2333,39891,-31.160,3.900,,-3.900,1980/01/25 05:54:20.031
1,2344,40078,-31.290,3.900,,-3.900,1980/01/25 05:54:20.218
1,2355,40250,-31.400,3.900,,-3.900,1980/01/25 05:54:20.390
1,2366,40422,-31.520,3.900,,-3.900,1980/01/25 05:54:20.562
1,2377,40719,-31.690,3.900,,-3.900,1980/01/25 05:54:20.859
1,2388,40891,-31.820,3.900,,-3.900,1980/01/25 05:54:21.031
1,2399,41063,-31.940,3.900,,-3.900,1980/01/25 05:54:21.203
1,2410,41235,-32.050,3.900,,-3.900,1980/01/25 05:54:21.375
1,2421,41453,-32.200,3.900,,-3.900,1980/01/25 05:54:21.593
1,2432,41656,-32.340,3.900,,-3.900,1980/01/25 05:54:21.796
1,2443,41844,-32.470,3.900,,-3.900,1980/01/25 05:54:21.984
1,2454,42031,-32.590,3.900,,-3.900,1980/01/25 05:54:22.171
1,2465,42219,-32.710,3.900,,-3.900,1980/01/25 05:54:22.359
1,2476,42406,-32.840,3.900,,-3.900,1980/01/25 05:54:22.546
1,2487,42578,-32.960,3.900,,-3.900,1980/01/25 05:54:22.718
1,2498,42766,-33.080,3.900,,-3.900,1980/01/25 05:54:22.906
1,2509,42953,-33.200,3.900,,-3.900,1980/01/25 05:54:23.093
1,2520,43141,-33.330,3.900,,-3.900,1980/01/25 05:54:23.281
1,2531,43328,-33.460,3.900,,-3.900,1980/01/25 05:54:23.468
1,2542,43500,-33.560,3.900,,-3.900,1980/01/25 05:54:23.640
1,2553,43688,-33.700,3.900,,-3.900,1980/01/25 05:54:23.828
1,2564,43906,-33.820,3.900,,-3.900,1980/01/25 05:54:24.046
1,2575,44172,-34.010,3.900,,-3.900,1980/01/25 05:54:24.312
1,2586,44344,-34.130,3.900,,-3.900,1980/01/25 05:54:24.484
1,2597,44563,-34.260,3.900,,-3.900,1980/01/25 05:54:24.703
1,2608,44735,-34.390,3.900,,-3.900,1980/01/25 05:54:24.875
1,2619,44906,-34.500,3.900,,-3.900,1980/01/25 05:54:25.046
1,2630,45078,-34.610,3.900,,-3.900,1980/01/25 05:54:25.218
1,2641,45250,-34.720,3.900,,-3.900,1980/01/25 05:54:25.390
1,2652,45422,-34.850,3.900,,-3.900,1980/01/25 05:54:25.562
1,2663,45610,-34.960,3.900,,-3.900,1980/01/25 05:54:25.750
1,2674,45781,-35.080,3.900,,-3.900,1980/01/25 05:54:25.921
1,2685,45969,-35.210,3.900,,-3.900,1980/01/25 05:54:26.109
1,2696,46156,-35.340,3.800,,-3.800,1980/01/25 05:54:26.296
1,2707,46328,-35.450,3.900,,-3.900,1980/01/25 05:54:26.468
1,2718,46516,-35.570,3.900,,-3.900,1980/01/25 05:54:26.656
1,2729,46703,-35.700,3.900,,-3.900,1980/01/25 05:54:26.843
1,2740,46875,-35.810,3.900,,-3.900,1980/01/25 05:54:27.015
1,2751,47047,-35.920,3.900,,-3.900,1980/01/25 05:54:27.187
1,2762,47250,-36.070,3.900,,-3.900,1980/01/25 05:54:27.390
1,2773,47531,-36.250,3.900,,-3.900,1980/01/25 05:54:27.671
1,2784,47703,-36.370,3.900,,-3.900,1980/01/25 05:54:27.843
1,2795,47891,-36.490,3.900,,-3.900,1980/01/25 05:54:28.031
1,2806,48063,-36.610,3.900,,-3.900,1980/01/25 05:54:28.203
1,2817,48235,-36.710,3.900,,-3.900,1980/01/25 05:54:28.375
1,2828,48422,-36.830,3.900,,-3.900,1980/01/25 05:54:28.562
1,2839,48625,-36.970,3.900,,-3.900,1980/01/25 05:54:28.765
1,2850,48828,-37.110,3.800,,-3.800,1980/01/25 05:54:28.968
1,2861,49000,-37.220,3.900,,-3.900,1980/01/25 05:54:29.140
1,2872,49188,-37.360,3.800,,-3.800,1980/01/25 05:54:29.328
1,2883,49360,-37.460,3.900,,-3.900,1980/01/25 05:54:29.500
1,2894,49531,-37.580,3.900,,-3.900,1980/01/25 05:54:29.671
1,2905,49703,-37.680,3.800,,-3.800,1980/01/25 05:54:29.843
1,2916,49891,-37.810,3.900,,-3.900,1980/01/25 05:54:30.031
1,2927,50063,-37.930,3.800,,-3.800,1980/01/25 05:54:30.203
1,2938,50250,-38.050,3.800,,-3.800,1980/01/25 05:54:30.390
1,2949,50469,-38.190,3.800,,-3.800,1980/01/25 05:54:30.609
1,2960,50656,-38.320,3.800,,-3.800,1980/01/25 05:54:30.796
1,2971,50938,-38.440,3.900,,-3.900,1980/01/25 05:54:31.078
1,2982,51110,-38.630,3.800,,-3.800,1980/01/25 05:54:31.250
1,2993,51297,-38.760,3.800,,-3.800,1980/01/25 05:54:31.437
1,3004,51469,-38.870,3.800,,-3.800,1980/01/25 05:54:31.609
1,3015,51672,-39.000,3.800,,-3.800,1980/01/25 05:54:31.812
1,3026,51860,-39.120,3.800,,-3.800,1980/01/25 05:54:32.000
1,3037,52031,-39.240,3.800,,-3.800,1980/01/25 05:54:32.171
1,3048,52219,-39.370,3.800,,-3.800,1980/01/25 05:54:32.359
1,3059,52438,-39.510,3.800,,-3.800,1980/01/25 05:54:32.578
1,3070,52610,-39.630,3.800,,-3.800,1980/01/25 05:54:32.750
1,3081,52781,-39.740,3.800,,-3.800,1980/01/25 05:54:32.921
1,3092,52985,-39.880,3.800,,-3.800,1980/01/25 05:54:33.125
1,3103,53156,-39.990,3.800,,-3.800,1980/01/25 05:54:33.296
1,3114,53328,-40.110,3.800,,-3.800,1980/01/25 05:54:33.468
1,3125,53500,-40.210,3.800,,-3.800,1980/01/25 05:54:33.640
1,3136,53688,-40.340,3.800,,-3.800,1980/01/25 05:54:33.828
1,3147,53875,-40.470,3.800,,-3.800,1980/01/25 05:54:34.015
1,3158,54047,-40.590,3.800,,-3.800,1980/01/25 05:54:34.187
1,3169,54235,-40.690,3.800,,-3.800,1980/01/25 05:54:34.375
1,3180,54516,-40.900,3.800,,-3.800,1980/01/25 05:54:34.656
1,3191,54703,-41.030,3.800,,-3.800,1980/01/25 05:54:34.843
1,3202,54875,-41.140,3.800,,-3.800,1980/01/25 05:54:35.015
1,3213,55078,-41.280,3.800,,-3.800,1980/01/25 05:54:35.218
1,3224,55250,-41.380,3.800,,-3.800,1980/01/25 05:54:35.390
1,3235,55438,-41.510,3.800,,-3.800,1980/01/25 05:54:35.578
1,3246,55625,-41.640,3.800,,-3.800,1980/01/25 05:54:35.765
1,3257,55813,-41.760,3.800,,-3.800,1980/01/25 05:54:35.953
1,3268,56000,-41.890,3.800,,-3.800,1980/01/25 05:54:36.140
1,3279,56188,-41.990,3.800,,-3.800,1980/01/25 05:54:36.328
1,3290,56375,-42.130,3.800,,-3.800,1980/01/25 05:54:36.515
1,3301,56563,-42.250,3.800,,-3.800,1980/01/25 05:54:36.703
1,3312,56735,-42.370,3.700,,-3.700,1980/01/25 05:54:36.875
1,3323,56938,-42.510,3.700,,-3.700,1980/01/25 05:54:37.078
1,3334,57110,-42.630,3.700,,-3.700,1980/01/25 05:54:37.250
1,3345,57281,-42.740,3.700,,-3.700,1980/01/25 05:54:37.421
1,3356,57453,-42.840,3.800,,-3.800,1980/01/25 05:54:37.593
1,3367,57625,-42.960,3.700,,-3.700,1980/01/25 05:54:37.765
1,3378,57938,-43.180,3.700,,-3.700,1980/01/25 05:54:38.078
1,3389,58125,-43.300,3.700,,-3.700,1980/01/25 05:54:38.265
1,3400,58344,-43.450,3.700,,-3.700,1980/01/25 05:54:38.484
1,3411,58516,-43.570,3.700,,-3.700,1980/01/25 05:54:38.656
1,3422,58688,-43.680,3.700,,-3.700,1980/01/25 05:54:38.828
1,3433,58860,-43.790,3.700,,-3.700,1980/01/25 05:54:39.000
1,3444,59031,-43.910,3.700,,-3.700,1980/01/25 05:54:39.171
1,3455,59203,-44.030,3.700,,-3.700,1980/01/25 05:54:39.343
1,3466,59391,-44.140,3.700,,-3.700,1980/01/25 05:54:39.531
1,3477,59578,-44.270,3.700,,-3.700,1980/01/25 05:54:39.718
1,3488,59750,-44.390,3.600,,-3.600,1980/01/25 05:54:39.890
1,3499,59922,-44.500,3.600,,-3.600,1980/01/25 05:54:40.062
1,3510,60125,-44.630,3.600,,-3.600,1980/01/25 05:54:40.265
1,3521,60313,-44.750,3.600,,-3.600,1980/01/25 05:54:40.453
1,3532,60516,-44.890,3.600,,-3.600,1980/01/25 05:54:40.656
1,3543,60703,-45.000,3.600,,-3.600,1980/01/25 05:54:40.843
1,3554,60891,-45.150,3.600,,-3.600,1980/01/25 05:54:41.031
1,3565,61063,-45.250,3.600,,-3.600,1980/01/25 05:54:41.203
1,3576,61360,-45.460,3.600,,-3.600,1980/01/25 05:54:41.500
1,3587,61563,-45.580,3.600,,-3.600,1980/01/25 05:54:41.703
1,3598,61766,-45.720,3.600,,-3.600,1980/01/25 05:54:41.906
1,3609,61969,-45.860,3.600,,-3.600,1980/01/25 05:54:42.109
1,3620,62156,-45.990,3.600,,-3.600,1980/01/25 05:54:42.296
1,3631,62360,-46.120,3.600,,-3.600,1980/01/25 05:54:42.500
1,3642,62547,-46.250,3.600,,-3.600,1980/01/25 05:54:42.687
1,3653,62735,-46.370,3.600,,-3.600,1980/01/25 05:54:42.875
1,3664,62906,-46.480,3.600,,-3.600,1980/01/25 05:54:43.046
1,3675,63094,-46.610,3.500,,-3.500,1980/01/25 05:54:43.234
1,3686,63266,-46.730,3.600,,-3.600,1980/01/25 05:54:43.406
1,3697,63469,-46.860,3.600,,-3.600,1980/01/25 05:54:43.609
1,3708,63641,-46.980,3.600,,-3.600,1980/01/25 05:54:43.781
1,3719,63813,-47.090,3.600,,-3.600,1980/01/25 05:54:43.953
1,3730,63985,-47.180,3.600,,-3.600,1980/01/25 05:54:44.125
1,3741,64156,-47.320,3.600,,-3.600,1980/01/25 05:54:44.296
1,3752,64344,-47.450,3.600,,-3.600,1980/01/25 05:54:44.484
1,3763,64516,-47.560,3.500,,-3.500,1980/01/25 05:54:44.656
1,3774,64844,-47.770,3.600,,-3.600,1980/01/25 05:54:44.984
1,3785,65047,-47.910,3.500,,-3.500,1980/01/25 05:54:45.187
1,3796,65219,-48.030,3.500,,-3.500,1980/01/25 05:54:45.359
1,3807,65406,-48.150,3.500,,-3.500,1980/01/25 05:54:45.546
1,3818,65578,-48.270,3.600,,-3.600,1980/01/25 05:54:45.718
1,3829,65750,-48.370,3.600,,-3.600,1980/01/25 05:54:45.890
1,3840,65969,-48.530,3.600,,-3.600,1980/01/25 05:54:46.109
1,3851,66141,-48.650,3.600,,-3.600,1980/01/25 05:54:46.281
1,3862,66313,-48.760,3.600,,-3.600,1980/01/25 05:54:46.453
1,3873,66485,-48.870,3.600,,-3.600,1980/01/25 05:54:46.625
1,3884,66672,-48.990,3.600,,-3.600,1980/01/25 05:54:46.812
1,3895,66860,-49.110,3.600,,-3.600,1980/01/25 05:54:47.000
1,3906,67031,-49.230,3.600,,-3.600,1980/01/25 05:54:47.171
1,3917,67203,-49.340,3.600,,-3.600,1980/01/25 05:54:47.343
1,3928,67391,-49.470,3.600,,-3.600,1980/01/25 05:54:47.531
1,3939,67563,-49.580,3.600,,-3.600,1980/01/25 05:54:47.703
1,3950,67750,-49.700,3.600,,-3.600,1980/01/25 05:54:47.890
1,3961,67969,-49.850,3.600,,-3.600,1980/01/25 05:54:48.109
1,3972,68281,-49.970,3.600,,-3.600,1980/01/25 05:54:48.421
1,3983,68485,-50.190,3.600,,-3.600,1980/01/25 05:54:48.625
1,3994,68656,-50.320,3.600,,-3.600,1980/01/25 05:54:48.796
1,4005,68844,-50.430,3.600,,-3.600,1980/01/25 05:54:48.984
1,4016,69031,-50.570,3.600,,-3.600,1980/01/25 05:54:49.171
1,4027,69250,-50.710,3.600,,-3.600,1980/01/25 05:54:49.390
1,4038,69422,-50.830,3.600,,-3.600,1980/01/25 05:54:49.562
1,4049,69610,-50.950,3.600,,-3.600,1980/01/25 05:54:49.750
1,4060,69781,-51.060,3.600,,-3.600,1980/01/25 05:54:49.921
1,4071,69969,-51.190,3.600,,-3.600,1980/01/25 05:54:50.109
1,4082,70141,-51.300,3.600,,-3.600,1980/01/25 05:54:50.281
1,4093,70328,-51.420,3.600,,-3.600,1980/01/25 05:54:50.468
1,4104,70547,-51.570,3.600,,-3.600,1980/01/25 05:54:50.687
1,4115,70719,-51.690,3.600,,-3.600,1980/01/25 05:54:50.859
1,4126,70922,-51.820,3.600,,-3.600,1980/01/25 05:54:51.062
1,4137,71110,-51.930,3.600,,-3.600,1980/01/25 05:54:51.250
1,4148,71281,-52.060,3.600,,-3.600,1980/01/25 05:54:51.421
1,4159,71485,-52.190,3.600,,-3.600,1980/01/25 05:54:51.625
1,4170,71672,-52.320,3.600,,-3.600,1980/01/25 05:54:51.812
1,4181,72000,-52.530,3.600,,-3.600,1980/01/25 05:54:52.140
1,4192,72188,-52.660,3.600,,-3.600,1980/01/25 05:54:52.328
1,4203,72360,-52.780,3.600,,-3.600,1980/01/25 05:54:52.500
1,4214,72531,-52.890,3.600,,-3.600,1980/01/25 05:54:52.671
1,4225,72719,-53.030,3.600,,-3.600,1980/01/25 05:54:52.859
1,4236,72906,-53.140,3.600,,-3.600,1980/01/25 05:54:53.046
1,4247,73110,-53.270,3.600,,-3.600,1980/01/25 05:54:53.250
1,4258,73281,-53.390,3.600,,-3.600,1980/01/25 05:54:53.421
1,4269,73453,-53.510,3.600,,-3.600,1980/01/25 05:54:53.593
1,4280,73641,-53.630,3.600,,-3.600,1980/01/25 05:54:53.781
1,4291,73828,-53.760,3.600,,-3.600,1980/01/25 05:54:53.968
1,4302,74000,-53.870,3.600,,-3.600,1980/01/25 05:54:54.140
1,4313,74172,-53.980,3.600,,-3.600,1980/01/25 05:54:54.312
1,4324,74344,-54.100,3.600,,-3.600,1980/01/25 05:54:54.484
1,4335,74547,-54.230,3.600,,-3.600,1980/01/25 05:54:54.687
1,4346,74719,-54.350,3.600,,-3.600,1980/01/25 05:54:54.859
1,4357,74922,-54.490,3.600,,-3.600,1980/01/25 05:54:55.062
1,4368,75110,-54.610,3.600,,-3.600,1980/01/25 05:54:55.250
1,4379,75422,-54.810,3.600,,-3.600,1980/01/25 05:54:55.562
1,4390,75594,-54.940,3.600,,-3.600,1980/01/25 05:54:55.734
1,4401,75781,-55.050,3.600,,-3.600,1980/01/25 05:54:55.921
1,4412,75953,-55.180,3.600,,-3.600,1980/01/25 05:54:56.093
1,4423,76125,-55.280,3.600,,-3.600,1980/01/25 05:54:56.265
1,4434,76297,-55.400,3.600,,-3.600,1980/01/25 05:54:56.437
1,4445,76485,-55.520,3.600,,-3.600,1980/01/25 05:54:56.625
1,4456,76672,-55.650,3.600,,-3.600,1980/01/25 05:54:56.812
1,4467,76844,-55.760,3.600,,-3.600,1980/01/25 05:54:56.984
1,4478,77063,-55.910,3.600,,-3.600,1980/01/25 05:54:57.203
1,4489,77235,-56.020,3.600,,-3.600,1980/01/25 05:54:57.375
1,4500,77406,-56.130,3.600,,-3.600,1980/01/25 05:54:57.546
1,4511,77594,-56.270,3.600,,-3.600,1980/01/25 05:54:57.734
1,4522,77797,-56.400,3.600,,-3.600,1980/01/25 05:54:57.937
1,4533,77969,-56.510,3.600,,-3.600,1980/01/25 05:54:58.109
1,4544,78156,-56.640,3.600,,-3.600,1980/01/25 05:54:58.296
1,4555,78391,-56.790,3.600,,-3.600,1980/01/25 05:54:58.531
1,4566,78563,-56.910,3.600,,-3.600,1980/01/25 05:54:58.703
1,4577,78891,-57.120,3.600,,-3.600,1980/01/25 05:54:59.031
1,4588,79078,-57.250,3.600,,-3.600,1980/01/25 05:54:59.218
1,4599,79266,-57.380,3.600,,-3.600,1980/01/25 05:54:59.406
1,4610,79469,-57.520,3.600,,-3.600,1980/01/25 05:54:59.609
1,4621,79656,-57.640,3.600,,-3.600,1980/01/25 05:54:59.796
1,4632,79828,-57.760,3.600,,-3.600,1980/01/25 05:54:59.968
1,4643,80016,-57.880,3.600,,-3.600,1980/01/25 05:55:00.156
1,4654,80188,-57.990,3.600,,-3.600,1980/01/25 05:55:00.328
1,4665,80360,-58.100,3.600,,-3.600,1980/01/25 05:55:00.500
1,4676,80547,-58.230,3.600,,-3.600,1980/01/25 05:55:00.687
1,4687,80735,-58.350,3.600,,-3.600,1980/01/25 05:55:00.875
1,4698,80953,-58.510,3.600,,-3.600,1980/01/25 05:55:01.093
1,4709,81141,-58.630,3.600,,-3.600,1980/01/25 05:55:01.281
1,4720,81328,-58.750,3.600,,-3.600,1980/01/25 05:55:01.468
1,4731,81516,-58.870,3.600,,-3.600,1980/01/25 05:55:01.656
1,4742,81688,-58.980,3.500,,-3.500,1980/01/25 05:55:01.828
1,4753,81891,-59.130,3.600,,-3.600,1980/01/25 05:55:02.031
1,4764,82078,-59.260,3.600,,-3.600,1980/01/25 05:55:02.218
1,4775,82438,-59.490,3.600,,-3.600,1980/01/25 05:55:02.578
1,4786,82625,-59.610,3.500,,-3.500,1980/01/25 05:55:02.765
1,4797,82813,-59.740,3.500,,-3.500,1980/01/25 05:55:02.953
1,4808,83000,-59.860,3.600,,-3.600,1980/01/25 05:55:03.140
1,4819,83172,-59.980,3.500,,-3.500,1980/01/25 05:55:03.312
1,4830,83360,-60.100,3.500,,-3.500,1980/01/25 05:55:03.500
1,4841,83531,-60.210,3.500,,-3.500,1980/01/25 05:55:03.671
1,4852,83719,-60.350,3.500,,-3.500,1980/01/25 05:55:03.859
1,4863,83891,-60.450,3.500,,-3.500,1980/01/25 05:55:04.031
1,4874,84078,-60.590,3.500,,-3.500,1980/01/25 05:55:04.218
1,4885,84266,-60.710,3.500,,-3.500,1980/01/25 05:55:04.406
1,4896,84438,-60.810,3.500,,-3.500,1980/01/25 05:55:04.578
1,4907,84641,-60.950,3.500,,-3.500,1980/01/25 05:55:04.781
1,4918,84813,-61.070,3.600,,-3.600,1980/01/25 05:55:04.953
1,4929,85016,-61.210,3.600,,-3.600,1980/01/25 05:55:05.156
1,4940,85188,-61.320,3.500,,-3.500,1980/01/25 05:55:05.328
1,4951,85375,-61.440,3.500,,-3.500,1980/01/25 05:55:05.515
1,4962,85563,-61.570,3.500,,-3.500,1980/01/25 05:55:05.703
1,4973,85906,-61.680,3.600,,-3.600,1980/01/25 05:55:06.046
1,4984,86094,-61.930,3.600,,-3.600,1980/01/25 05:55:06.234
1,4995,86266,-62.040,3.500,,-3.500,1980/01/25 05:55:06.406
1,5006,86438,-62.150,3.500,,-3.500,1980/01/25 05:55:06.578
1,5017,86625,-62.270,3.600,,-3.600,1980/01/25 05:55:06.765
1,5028,86797,-62.390,3.500,,-3.500,1980/01/25 05:55:06.937
1,5039,86985,-62.510,3.600,,-3.600,1980/01/25 05:55:07.125
1,5050,87156,-62.630,3.600,,-3.600,1980/01/25 05:55:07.296
1,5061,87328,-62.750,3.600,,-3.600,1980/01/25 05:55:07.468
1,5072,87516,-62.870,3.600,,-3.600,1980/01/25 05:55:07.656
1,5083,87688,-62.980,3.600,,-3.600,1980/01/25 05:55:07.828
1,5094,87860,-63.100,3.600,,-3.600,1980/01/25 05:55:08.000
1,5105,88031,-63.220,3.600,,-3.600,1980/01/25 05:55:08.171
1,5116,88235,-63.340,3.600,,-3.600,1980/01/25 05:55:08.375
1,5127,88438,-63.480,3.600,,-3.600,1980/01/25 05:55:08.578
1,5138,88610,-63.600,3.600,,-3.600,1980/01/25 05:55:08.750
1,5149,88797,-63.720,3.600,,-3.600,1980/01/25 05:55:08.937
1,5160,88985,-63.850,3.600,,-3.600,1980/01/25 05:55:09.125
1,5171,89328,-63.960,3.600,,-3.600,1980/01/25 05:55:09.468
1,5182,89516,-64.190,3.600,,-3.600,1980/01/25 05:55:09.656
1,5193,89688,-64.310,3.600,,-3.600,1980/01/25 05:55:09.828
1,5204,89875,-64.430,3.600,,-3.600,1980/01/25 05:55:10.015
1,5215,90063,-64.570,3.600,,-3.600,1980/01/25 05:55:10.203
1,5226,90266,-64.700,3.600,,-3.600,1980/01/25 05:55:10.406
1,5237,90453,-64.830,3.600,,-3.600,1980/01/25 05:55:10.593
1,5248,90625,-64.940,3.600,,-3.600,1980/01/25 05:55:10.765
1,5259,90813,-65.070,3.600,,-3.600,1980/01/25 05:55:10.953
1,5270,91000,-65.180,3.600,,-3.600,1980/01/25 05:55:11.140
1,5281,91172,-65.300,3.600,,-3.600,1980/01/25 05:55:11.312
1,5292,91375,-65.440,3.600,,-3.600,1980/01/25 05:55:11.515
1,5303,91578,-65.580,3.600,,-3.600,1980/01/25 05:55:11.718
1,5314,91766,-65.700,3.600,,-3.600,1980/01/25 05:55:11.906
1,5325,91953,-65.830,3.600,,-3.600,1980/01/25 05:55:12.093
1,5336,92141,-65.960,3.600,,-3.600,1980/01/25 05:55:12.281
1,5347,92344,-66.080,3.600,,-3.600,1980/01/25 05:55:12.484
1,5358,92547,-66.220,3.600,,-3.600,1980/01/25 05:55:12.687
1,5369,92719,-66.320,3.600,,-3.600,1980/01/25 05:55:12.859
1,5380,93063,-66.560,3.600,,-3.600,1980/01/25 05:55:13.203
1,5391,93250,-66.690,3.600,,-3.600,1980/01/25 05:55:13.390
1,5402,93438,-66.800,3.600,,-3.600,1980/01/25 05:55:13.578
1,5413,93610,-66.930,3.600,,-3.600,1980/01/25 05:55:13.750
1,5424,93781,-67.040,3.600,,-3.600,1980/01/25 05:55:13.921
1,5435,93953,-67.160,3.600,,-3.600,1980/01/25 05:55:14.093
1,5446,94125,-67.270,3.600,,-3.600,1980/01/25 05:55:14.265
1,5457,94313,-67.400,3.500,,-3.500,1980/01/25 05:55:14.453
1,5468,94500,-67.520,3.600,,-3.600,1980/01/25 05:55:14.640
1,5479,94688,-67.640,3.600,,-3.600,1980/01/25 05:55:14.828
1,5490,94875,-67.760,3.600,,-3.600,1980/01/25 05:55:15.015
1,5501,95047,-67.880,3.600,,-3.600,1980/01/25 05:55:15.187
1,5512,95219,-68.000,3.600,,-3.600,1980/01/25 05:55:15.359
1,5523,95406,-68.120,3.500,,-3.500,1980/01/25 05:55:15.546
1,5534,95578,-68.230,3.600,,-3.600,1980/01/25 05:55:15.718
1,5545,95750,-68.350,3.600,,-3.600,1980/01/25 05:55:15.890
1,5556,95922,-68.470,3.600,,-3.600,1980/01/25 05:55:16.062
1,5567,96094,-68.590,3.600,,-3.600,1980/01/25 05:55:16.234
1,5578,96453,-68.820,3.600,,-3.600,1980/01/25 05:55:16.593
1,5589,96625,-68.930,3.600,,-3.600,1980/01/25 05:55:16.765
1,5600,96813,-69.060,3.600,,-3.600,1980/01/25 05:55:16.953
1,5611,96985,-69.170,3.600,,-3.600,1980/01/25 05:55:17.125
1,5622,97172,-69.300,3.600,,-3.600,1980/01/25 05:55:17.312
1,5633,97391,-69.440,3.600,,-3.600,1980/01/25 05:55:17.531
1,5644,97563,-69.560,3.600,,-3.600,1980/01/25 05:55:17.703
1,5655,97750,-69.680,3.600,,-3.600,1980/01/25 05:55:17.890
1,5666,97938,-69.800,3.600,,-3.600,1980/01/25 05:55:18.078
1,5677,98141,-69.940,3.600,,-3.600,1980/01/25 05:55:18.281
1,5688,98344,-70.080,3.600,,-3.600,1980/01/25 05:55:18.484
1,5699,98531,-70.210,3.600,,-3.600,1980/01/25 05:55:18.671
1,5710,98719,-70.330,3.600,,-3.600,1980/01/25 05:55:18.859
1,5721,98891,-70.440,3.600,,-3.600,1980/01/25 05:55:19.031
1,5732,99094,-70.570,3.600,,-3.600,1980/01/25 05:55:19.234
1,5743,99281,-70.700,3.600,,-3.600,1980/01/25 05:55:19.421
1,5754,99453,-70.810,3.600,,-3.600,1980/01/25 05:55:19.593
1,5765,99641,-70.940,3.600,,-3.600,1980/01/25 05:55:19.781
1,5776,100016,-71.190,3.600,,-3.600,1980/01/25 05:55:20.156
1,5787,100203,-71.320,3.600,,-3.600,1980/01/25 05:55:20.343
1,5798,100391,-71.440,3.600,,-3.600,1980/01/25 05:55:20.531
1,5809,100563,-71.550,3.600,,-3.600,1980/01/25 05:55:20.703
1,5820,100750,-71.680,3.600,,-3.600,1980/01/25 05:55:20.890
1,5831,100922,-71.800,3.600,,-3.600,1980/01/25 05:55:21.062
1,5842,101125,-71.940,3.600,,-3.600,1980/01/25 05:55:21.265
1,5853,101313,-72.040,3.600,,-3.600,1980/01/25 05:55:21.453
1,5864,101500,-72.170,3.600,,-3.600,1980/01/25 05:55:21.640
1,5875,101688,-72.300,3.600,,-3.600,1980/01/25 05:55:21.828
1,5886,101860,-72.420,3.600,,-3.600,1980/01/25 05:55:22.000
1,5897,102031,-72.530,3.600,,-3.600,1980/01/25 05:55:22.171
1,5908,102203,-72.650,3.600,,-3.600,1980/01/25 05:55:22.343
1,5919,102375,-72.770,3.600,,-3.600,1980/01/25 05:55:22.515
1,5930,102547,-72.870,3.600,,-3.600,1980/01/25 05:55:22.687
1,5941,102766,-73.030,3.600,,-3.600,1980/01/25 05:55:22.906
1,5952,102938,-73.130,3.600,,-3.600,1980/01/25 05:55:23.078
1,5963,103125,-73.260,3.600,,-3.600,1980/01/25 05:55:23.265
1,5974,103516,-73.520,3.600,,-3.600,1980/01/25 05:55:23.656
1,5985,103688,-73.630,3.600,,-3.600,1980/01/25 05:55:23.828
1,5996,103860,-73.740,3.600,,-3.600,1980/01/25 05:55:24.000
1,6007,104047,-73.880,3.600,,-3.600,1980/01/25 05:55:24.187
1,6018,104219,-74.000,3.600,,-3.600,1980/01/25 05:55:24.359
1,6029,104422,-74.120,3.600,,-3.600,1980/01/25 05:55:24.562
1,6040,104594,-74.240,3.600,,-3.600,1980/01/25 05:55:24.734
1,6051,104797,-74.370,3.600,,-3.600,1980/01/25 05:55:24.937
1,6062,104969,-74.490,3.600,,-3.600,1980/01/25 05:55:25.109
1,6073,105141,-74.600,3.600,,-3.600,1980/01/25 05:55:25.281
1,6084,105344,-74.730,3.600,,-3.600,1980/01/25 05:55:25.484
1,6095,105531,-74.870,3.600,,-3.600,1980/01/25 05:55:25.671
1,6106,105703,-74.990,3.600,,-3.600,1980/01/25 05:55:25.843
1,6117,105891,-75.090,3.600,,-3.600,1980/01/25 05:55:26.031
1,6128,106078,-75.220,3.600,,-3.600,1980/01/25 05:55:26.218
1,6139,106250,-75.350,3.600,,-3.600,1980/01/25 05:55:26.390
1,6150,106438,-75.460,3.600,,-3.600,1980/01/25 05:55:26.578
1,6161,106641,-75.610,3.600,,-3.600,1980/01/25 05:55:26.781
1,6172,107000,-75.700,3.600,,-3.600,1980/01/25 05:55:27.140
1,6183,107188,-75.960,3.600,,-3.600,1980/01/25 05:55:27.328
1,6194,107375,-76.090,3.600,,-3.600,1980/01/25 05:55:27.515
1,6205,107563,-76.210,3.600,,-3.600,1980/01/25 05:55:27.703
1,6216,107735,-76.330,3.600,,-3.600,1980/01/25 05:55:27.875
1,6227,107922,-76.450,3.600,,-3.600,1980/01/25 05:55:28.062
1,6238,108125,-76.590,3.600,,-3.600,1980/01/25 05:55:28.265
1,6249,108313,-76.720,3.600,,-3.600,1980/01/25 05:55:28.453
1,6260,108500,-76.830,3.600,,-3.600,1980/01/25 05:55:28.640
1,6271,108703,-76.970,3.600,,-3.600,1980/01/25 05:55:28.843
1,6282,108891,-77.110,3.600,,-3.600,1980/01/25 05:55:29.031
1,6293,109094,-77.230,3.600,,-3.600,1980/01/25 05:55:29.234
1,6304,109281,-77.360,3.600,,-3.600,1980/01/25 05:55:29.421
1,6315,109453,-77.480,3.600,,-3.600,1980/01/25 05:55:29.593
1,6326,109625,-77.600,3.600,,-3.600,1980/01/25 05:55:29.765
1,6337,109813,-77.720,3.600,,-3.600,1980/01/25 05:55:29.953
1,6348,110000,-77.840,3.600,,-3.600,1980/01/25 05:55:30.140
1,6359,110188,-77.960,3.600,,-3.600,1980/01/25 05:55:30.328
1,6370,110360,-78.080,3.600,,-3.600,1980/01/25 05:55:30.500
1,6381,110735,-78.330,3.600,,-3.600,1980/01/25 05:55:30.875
1,6392,110906,-78.440,3.600,,-3.600,1980/01/25 05:55:31.046
1,6403,111078,-78.560,3.600,,-3.600,1980/01/25 05:55:31.218
1,6414,111266,-78.690,3.600,,-3.600,1980/01/25 05:55:31.406
1,6425,111438,-78.790,3.600,,-3.600,1980/01/25 05:55:31.578
1,6436,111625,-78.920,3.600,,-3.600,1980/01/25 05:55:31.765
1,6447,111797,-79.030,3.600,,-3.600,1980/01/25 05:55:31.937
1,6458,111985,-79.160,3.600,,-3.600,1980/01/25 05:55:32.125
1,6469,112156,-79.270,3.600,,-3.600,1980/01/25 05:55:32.296
1,6480,112328,-79.390,3.600,,-3.600,1980/01/25 05:55:32.468
1,6491,112516,-79.500,3.600,,-3.600,1980/01/25 05:55:32.656
1,6502,112688,-79.620,3.600,,-3.600,1980/01/25 05:55:32.828
1,6513,112860,-79.740,3.500,,-3.500,1980/01/25 05:55:33.000
1,6524,113031,-79.860,3.600,,-3.600,1980/01/25 05:55:33.171
1,6535,113235,-80.000,3.500,,-3.500,1980/01/25 05:55:33.375
1,6546,113406,-80.110,3.500,,-3.500,1980/01/25 05:55:33.546
1,6557,113578,-80.230,3.500,,-3.500,1980/01/25 05:55:33.718
1,6568,113750,-80.330,3.500,,-3.500,1980/01/25 05:55:33.890
1,6579,114156,-80.610,3.600,,-3.600,1980/01/25 05:55:34.296
1,6590,114328,-80.720,3.500,,-3.500,1980/01/25 05:55:34.468
1,6601,114516,-80.850,3.600,,-3.600,1980/01/25 05:55:34.656
1,6612,114719,-80.990,3.500,,-3.500,1980/01/25 05:55:34.859
1,6623,114906,-81.100,3.600,,-3.600,1980/01/25 05:55:35.046
1,6634,115094,-81.240,3.500,,-3.500,1980/01/25 05:55:35.234
1,6645,115281,-81.360,3.500,,-3.500,1980/01/25 05:55:35.421
1,6656,115453,-81.470,3.500,,-3.500,1980/01/25 05:55:35.593
1,6667,115641,-81.600,3.500,,-3.500,1980/01/25 05:55:35.781
1,6678,115813,-81.700,3.500,,-3.500,1980/01/25 05:55:35.953
1,6689,115985,-81.830,3.500,,-3.500,1980/01/25 05:55:36.125
1,6700,116156,-81.940,3.500,,-3.500,1980/01/25 05:55:36.296
1,6711,116360,-82.070,3.600,,-3.600,1980/01/25 05:55:36.500
1,6722,116547,-82.200,3.500,,-3.500,1980/01/25 05:55:36.687
1,6733,116719,-82.310,3.600,,-3.600,1980/01/25 05:55:36.859
1,6744,116922,-82.450,3.600,,-3.600,1980/01/25 05:55:37.062
1,6755,117094,-82.570,3.600,,-3.600,1980/01/25 05:55:37.234
1,6766,117297,-82.700,3.600,,-3.600,1980/01/25 05:55:37.437
1,6777,117672,-82.950,3.600,,-3.600,1980/01/25 05:55:37.812
1,6788,117860,-83.070,3.600,,-3.600,1980/01/25 05:55:38.000
1,6799,118031,-83.180,3.600,,-3.600,1980/01/25 05:55:38.171
1,6810,118203,-83.300,3.600,,-3.600,1980/01/25 05:55:38.343
1,6821,118391,-83.420,3.600,,-3.600,1980/01/25 05:55:38.531
1,6832,118594,-83.560,3.600,,-3.600,1980/01/25 05:55:38.734
1,6843,118766,-83.680,3.600,,-3.600,1980/01/25 05:55:38.906
1,6854,118969,-83.800,3.600,,-3.600,1980/01/25 05:55:39.109
1,6865,119141,-83.920,3.600,,-3.600,1980/01/25 05:55:39.281
1,6876,119328,-84.050,3.600,,-3.600,1980/01/25 05:55:39.468
1,6887,119500,-84.170,3.600,,-3.600,1980/01/25 05:55:39.640
1,6898,119672,-84.280,3.600,,-3.600,1980/01/25 05:55:39.812
1,6909,119844,-84.380,3.600,,-3.600,1980/01/25 05:55:39.984
1,6920,120031,-84.510,3.600,,-3.600,1980/01/25 05:55:40.171
1,6931,120203,-84.630,3.600,,-3.600,1980/01/25 05:55:40.343
1,6942,120391,-84.760,3.600,,-3.600,1980/01/25 05:55:40.531
1,6953,120594,-84.890,3.600,,-3.600,1980/01/25 05:55:40.734
1,6964,120766,-85.010,3.600,,-3.600,1980/01/25 05:55:40.906
1,6975,121156,-85.270,3.600,,-3.600,1980/01/25 05:55:41.296
1,6986,121344,-85.400,3.600,,-3.600,1980/01/25 05:55:41.484
1,6997,121516,-85.500,3.600,,-3.600,1980/01/25 05:55:41.656
1,7008,121719,-85.640,3.600,,-3.600,1980/01/25 05:55:41.859
1,7019,121891,-85.750,3.600,,-3.600,1980/01/25 05:55:42.031
1,7030,122063,-85.870,3.600,,-3.600,1980/01/25 05:55:42.203
1,7041,122250,-85.990,3.600,,-3.600,1980/01/25 05:55:42.390
1,7052,122422,-86.110,3.600,,-3.600,1980/01/25 05:55:42.562
1,7063,122625,-86.240,3.600,,-3.600,1980/01/25 05:55:42.765
1,7074,122797,-86.360,3.600,,-3.600,1980/01/25 05:55:42.937
1,7085,122969,-86.470,3.600,,-3.600,1980/01/25 05:55:43.109
1,7096,123172,-86.590,3.600,,-3.600,1980/01/25 05:55:43.312
1,7107,123344,-86.720,3.600,,-3.600,1980/01/25 05:55:43.484
1,7118,123516,-86.840,3.600,,-3.600,1980/01/25 05:55:43.656
1,7129,123688,-86.950,3.600,,-3.600,1980/01/25 05:55:43.828
1,7140,123860,-87.070,3.600,,-3.600,1980/01/25 05:55:44.000
1,7151,124031,-87.180,3.600,,-3.600,1980/01/25 05:55:44.171
1,7162,124203,-87.300,3.600,,-3.600,1980/01/25 05:55:44.343
1,7173,124594,-87.400,3.600,,-3.600,1980/01/25 05:55:44.734
1,7184,124781,-87.680,3.600,,-3.600,1980/01/25 05:55:44.921
1,7195,124953,-87.800,3.600,,-3.600,1980/01/25 05:55:45.093
1,7206,125141,-87.920,3.600,,-3.600,1980/01/25 05:55:45.281
1,7217,125328,-88.050,3.600,,-3.600,1980/01/25 05:55:45.468
1,7228,125516,-88.170,3.600,,-3.600,1980/01/25 05:55:45.656
1,7239,125688,-88.280,3.600,,-3.600,1980/01/25 05:55:45.828
1,7250,125875,-88.400,3.600,,-3.600,1980/01/25 05:55:46.015
1,7261,126063,-88.530,3.600,,-3.600,1980/01/25 05:55:46.203
1,7272,126250,-88.650,3.600,,-3.600,1980/01/25 05:55:46.390
1,7283,126438,-88.780,3.600,,-3.600,1980/01/25 05:55:46.578
1,7294,126641,-88.920,3.600,,-3.600,1980/01/25 05:55:46.781
1,7305,126813,-89.030,3.600,,-3.600,1980/01/25 05:55:46.953
1,7316,126985,-89.150,3.600,,-3.600,1980/01/25 05:55:47.125
1,7327,127172,-89.280,3.600,,-3.600,1980/01/25 05:55:47.312
1,7338,127344,-89.400,3.600,,-3.600,1980/01/25 05:55:47.484
1,7349,127516,-89.500,3.600,,-3.600,1980/01/25 05:55:47.656
1,7360,127688,-89.620,3.600,,-3.600,1980/01/25 05:55:47.828
1,7371,128110,-89.750,3.600,,-3.600,1980/01/25 05:55:48.250
1,7382,128281,-90.010,3.600,,-3.600,1980/01/25 05:55:48.421
1,7393,128469,-90.140,3.600,,-3.600,1980/01/25 05:55:48.609
1,7404,128672,-90.270,3.600,,-3.600,1980/01/25 05:55:48.812
1,7415,128844,-90.380,3.600,,-3.600,1980/01/25 05:55:48.984
1,7426,129031,-90.510,3.600,,-3.600,1980/01/25 05:55:49.171
1,7437,129219,-90.630,3.600,,-3.600,1980/01/25 05:55:49.359
1,7448,129391,-90.750,3.600,,-3.600,1980/01/25 05:55:49.531
1,7459,129563,-90.870,3.600,,-3.600,1980/01/25 05:55:49.703
1,7470,129735,-90.980,3.600,,-3.600,1980/01/25 05:55:49.875
1,7481,129938,-91.110,3.600,,-3.600,1980/01/25 05:55:50.078
1,7492,130125,-91.240,3.600,,-3.600,1980/01/25 05:55:50.265
1,7503,130313,-91.360,3.600,,-3.600,1980/01/25 05:55:50.453
1,7514,130500,-91.480,3.600,,-3.600,1980/01/25 05:55:50.640
1,7525,130703,-91.620,3.600,,-3.600,1980/01/25 05:55:50.843
1,7536,130891,-91.760,3.500,,-3.500,1980/01/25 05:55:51.031
1,7547,131063,-91.870,3.600,,-3.600,1980/01/25 05:55:51.203
1,7558,131250,-91.980,3.500,,-3.500,1980/01/25 05:55:51.390
1,7569,131422,-92.100,3.500,,-3.500,1980/01/25 05:55:51.562
1,7580,131844,-92.370,3.500,,-3.500,1980/01/25 05:55:51.984
1,7591,132047,-92.520,3.500,,-3.500,1980/01/25 05:55:52.187
1,7602,132235,-92.640,3.600,,-3.600,1980/01/25 05:55:52.375
1,7613,132422,-92.770,3.500,,-3.500,1980/01/25 05:55:52.562
1,7624,132610,-92.880,3.500,,-3.500,1980/01/25 05:55:52.750
1,7635,132797,-93.020,3.600,,-3.600,1980/01/25 05:55:52.937
1,7646,132985,-93.150,3.500,,-3.500,1980/01/25 05:55:53.125
1,7657,133156,-93.250,3.600,,-3.600,1980/01/25 05:55:53.296
1,7668,133375,-93.400,3.600,,-3.600,1980/01/25 05:55:53.515
1,7679,133563,-93.520,3.600,,-3.600,1980/01/25 05:55:53.703
1,7690,133750,-93.650,3.600,,-3.600,1980/01/25 05:55:53.890
1,7701,133938,-93.780,3.600,,-3.600,1980/01/25 05:55:54.078
1,7712,134110,-93.900,3.600,,-3.600,1980/01/25 05:55:54.250
1,7723,134281,-94.000,3.600,,-3.600,1980/01/25 05:55:54.421
1,7734,134453,-94.120,3.600,,-3.600,1980/01/25 05:55:54.593
1,7745,134641,-94.260,3.600,,-3.600,1980/01/25 05:55:54.781
1,7756,134813,-94.360,3.600,,-3.600,1980/01/25 05:55:54.953
1,7767,134985,-94.470,3.600,,-3.600,1980/01/25 05:55:55.125
1,7778,135391,-94.750,3.600,,-3.600,1980/01/25 05:55:55.531
1,7789,135563,-94.850,3.600,,-3.600,1980/01/25 05:55:55.703
1,7800,135750,-94.980,3.600,,-3.600,1980/01/25 05:55:55.890
1,7811,135938,-95.100,3.600,,-3.600,1980/01/25 05:55:56.078
1,7822,136125,-95.240,3.600,,-3.600,1980/01/25 05:55:56.265
1,7833,136297,-95.350,3.600,,-3.600,1980/01/25 05:55:56.437
1,7844,136469,-95.460,3.600,,-3.600,1980/01/25 05:55:56.609
1,7855,136656,-95.580,3.600,,-3.600,1980/01/25 05:55:56.796
1,7866,136844,-95.710,3.600,,-3.600,1980/01/25 05:55:56.984
1,7877,137031,-95.840,3.600,,-3.600,1980/01/25 05:55:57.171
1,7888,137203,-95.940,3.600,,-3.600,1980/01/25 05:55:57.343
1,7899,137375,-96.060,3.600,,-3.600,1980/01/25 05:55:57.515
1,7910,137547,-96.180,3.600,,-3.600,1980/01/25 05:55:57.687
1,7921,137735,-96.300,3.600,,-3.600,1980/01/25 05:55:57.875
1,7932,137922,-96.430,3.600,,-3.600,1980/01/25 05:55:58.062
1,7943,138110,-96.550,3.600,,-3.600,1980/01/25 05:55:58.250
1,7954,138281,-96.680,3.600,,-3.600,1980/01/25 05:55:58.421
1,7965,138469,-96.790,3.600,,-3.600,1980/01/25 05:55:58.609
1,7976,138922,-97.090,3.600,,-3.600,1980/01/25 05:55:59.062
1,7987,139094,-97.210,3.700,,-3.700,1980/01/25 05:55:59.234
1,7998,139281,-97.320,3.600,,-3.600,1980/01/25 05:55:59.421
1,8009,139453,-97.450,3.600,,-3.600,1980/01/25 05:55:59.593
1,8020,139641,-97.580,3.600,,-3.600,1980/01/25 05:55:59.781
1,8031,139813,-97.700,3.600,,-3.600,1980/01/25 05:55:59.953
1,8042,140000,-97.810,3.600,,-3.600,1980/01/25 05:56:00.140
1,8053,140172,-97.930,3.600,,-3.600,1980/01/25 05:56:00.312
1,8064,140344,-98.040,3.600,,-3.600,1980/01/25 05:56:00.484
1,8075,140516,-98.160,3.600,,-3.600,1980/01/25 05:56:00.656
1,8086,140703,-98.280,3.600,,-3.600,1980/01/25 05:56:00.843
1,8097,140875,-98.400,3.600,,-3.600,1980/01/25 05:56:01.015
1,8108,141047,-98.510,3.600,,-3.600,1980/01/25 05:56:01.187
1,8119,141219,-98.610,3.600,,-3.600,1980/01/25 05:56:01.359
1,8130,141391,-98.740,3.600,,-3.600,1980/01/25 05:56:01.531
1,8141,141563,-98.860,3.700,,-3.700,1980/01/25 05:56:01.703
1,8152,141735,-98.970,3.600,,-3.600,1980/01/25 05:56:01.875
1,8163,141938,-99.100,3.600,,-3.600,1980/01/25 05:56:02.078
1,8174,142375,-99.400,3.600,,-3.600,1980/01/25 05:56:02.515
1,8185,142547,-99.510,3.600,,-3.600,1980/01/25 05:56:02.687
1,8196,142735,-99.640,3.600,,-3.600,1980/01/25 05:56:02.875
1,8207,142906,-99.750,3.600,,-3.600,1980/01/25 05:56:03.046
1,8218,143110,-99.880,3.600,,-3.600,1980/01/25 05:56:03.250
1,8229,143297,-100.000,3.600,,-3.600,1980/01/25 05:56:03.437
1,8240,143469,-100.120,3.600,,-3.600,1980/01/25 05:56:03.609
1,8251,143656,-100.240,3.600,,-3.600,1980/01/25 05:56:03.796
1,8262,143844,-100.360,3.600,,-3.600,1980/01/25 05:56:03.984
1,8273,144031,-100.490,3.600,,-3.600,1980/01/25 05:56:04.171
1,8284,144203,-100.610,3.600,,-3.600,1980/01/25 05:56:04.343
1,8295,144375,-100.720,3.600,,-3.600,1980/01/25 05:56:04.515
1,8306,144563,-100.850,3.600,,-3.600,1980/01/25 05:56:04.703
1,8317,144750,-100.970,3.600,,-3.600,1980/01/25 05:56:04.890
1,8328,144938,-101.100,3.600,,-3.600,1980/01/25 05:56:05.078
1,8339,145110,-101.220,3.600,,-3.600,1980/01/25 05:56:05.250
1,8350,145313,-101.350,3.600,,-3.600,1980/01/25 05:56:05.453
1,8361,145485,-101.460,3.600,,-3.600,1980/01/25 05:56:05.625
1,8372,145906,-101.570,3.600,,-3.600,1980/01/25 05:56:06.046
1,8383,146110,-101.880,3.600,,-3.600,1980/01/25 05:56:06.250
1,8394,146281,-101.990,3.600,,-3.600,1980/01/25 05:56:06.421
1,8405,146453,-102.110,3.600,,-3.600,1980/01/25 05:56:06.593
1,8416,146625,-102.230,3.600,,-3.600,1980/01/25 05:56:06.765
1,8427,146813,-102.350,3.600,,-3.600,1980/01/25 05:56:06.953
1,8438,146985,-102.470,3.600,,-3.600,1980/01/25 05:56:07.125
1,8449,147156,-102.570,3.600,,-3.600,1980/01/25 05:56:07.296
1,8460,147360,-102.720,3.600,,-3.600,1980/01/25 05:56:07.500
1,8471,147531,-102.830,3.600,,-3.600,1980/01/25 05:56:07.671
1,8482,147703,-102.940,3.600,,-3.600,1980/01/25 05:56:07.843
1,8493,147875,-103.050,3.600,,-3.600,1980/01/25 05:56:08.015
1,8504,148063,-103.180,3.600,,-3.600,1980/01/25 05:56:08.203
1,8515,148235,-103.300,3.600,,-3.600,1980/01/25 05:56:08.375
1,8526,148406,-103.420,3.600,,-3.600,1980/01/25 05:56:08.546
1,8537,148578,-103.520,3.600,,-3.600,1980/01/25 05:56:08.718
1,8548,148766,-103.650,3.600,,-3.600,1980/01/25 05:56:08.906
1,8559,148938,-103.760,3.600,,-3.600,1980/01/25 05:56:09.078
1,8570,149110,-103.880,3.600,,-3.600,1980/01/25 05:56:09.250
1,8581,149547,-104.160,3.500,,-3.500,1980/01/25 05:56:09.687
1,8592,149750,-104.300,3.500,,-3.500,1980/01/25 05:56:09.890
1,8603,149922,-104.420,3.500,,-3.500,1980/01/25 05:56:10.062
1,8614,150094,-104.530,3.500,,-3.500,1980/01/25 05:56:10.234
1,8625,150266,-104.650,3.500,,-3.500,1980/01/25 05:56:10.406
1,8636,150438,-104.760,3.500,,-3.500,1980/01/25 05:56:10.578
1,8647,150610,-104.880,3.500,,-3.500,1980/01/25 05:56:10.750
1,8658,150797,-105.010,3.500,,-3.500,1980/01/25 05:56:10.937
1,8669,151000,-105.130,3.500,,-3.500,1980/01/25 05:56:11.140
1,8680,151172,-105.250,3.500,,-3.500,1980/01/25 05:56:11.312
1,8691,151360,-105.360,3.500,,-3.500,1980/01/25 05:56:11.500
1,8702,151531,-105.490,3.500,,-3.500,1980/01/25 05:56:11.671
1,8713,151719,-105.610,3.500,,-3.500,1980/01/25 05:56:11.859
1,8724,151891,-105.730,3.500,,-3.500,1980/01/25 05:56:12.031
1,8735,152078,-105.860,3.500,,-3.500,1980/01/25 05:56:12.218
1,8746,152266,-105.980,3.500,,-3.500,1980/01/25 05:56:12.406
1,8757,152438,-106.090,3.500,,-3.500,1980/01/25 05:56:12.578
1,8768,152656,-106.240,3.500,,-3.500,1980/01/25 05:56:12.796
1,8779,153094,-106.530,3.500,,-3.500,1980/01/25 05:56:13.234
1,8790,153266,-106.650,3.500,,-3.500,1980/01/25 05:56:13.406
1,8801,153453,-106.760,3.500,,-3.500,1980/01/25 05:56:13.593
1,8812,153641,-106.890,3.500,,-3.500,1980/01/25 05:56:13.781
1,8823,153813,-107.010,3.500,,-3.500,1980/01/25 05:56:13.953
1,8834,154000,-107.130,3.400,,-3.400,1980/01/25 05:56:14.140
1,8845,154203,-107.270,3.500,,-3.500,1980/01/25 05:56:14.343
1,8856,154375,-107.390,3.400,,-3.400,1980/01/25 05:56:14.515
1,8867,154547,-107.500,3.400,,-3.400,1980/01/25 05:56:14.687
1,8878,154735,-107.620,3.400,,-3.400,1980/01/25 05:56:14.875
1,8889,154922,-107.750,3.400,,-3.400,1980/01/25 05:56:15.062
1,8900,155094,-107.860,3.400,,-3.400,1980/01/25 05:56:15.234
1,8911,155266,-107.980,3.400,,-3.400,1980/01/25 05:56:15.406
1,8922,155453,-108.100,3.400,,-3.400,1980/01/25 05:56:15.593
1,8933,155641,-108.230,3.400,,-3.400,1980/01/25 05:56:15.781
1,8944,155813,-108.340,3.400,,-3.400,1980/01/25 05:56:15.953
1,8955,156000,-108.450,3.400,,-3.400,1980/01/25 05:56:16.140
1,8966,156172,-108.580,3.400,,-3.400,1980/01/25 05:56:16.312
1,8977,156625,-108.880,3.300,,-3.300,1980/01/25 05:56:16.765
1,8988,156828,-109.010,3.300,,-3.300,1980/01/25 05:56:16.968
1,8999,157000,-109.130,3.300,,-3.300,1980/01/25 05:56:17.140
1,9010,157172,-109.250,3.300,,-3.300,1980/01/25 05:56:17.312
1,9021,157360,-109.370,3.300,,-3.300,1980/01/25 05:56:17.500
1,9032,157563,-109.510,3.300,,-3.300,1980/01/25 05:56:17.703
1,9043,157750,-109.630,3.200,,-3.200,1980/01/25 05:56:17.890
1,9054,157938,-109.750,3.200,,-3.200,1980/01/25 05:56:18.078
1,9065,158125,-109.870,3.200,,-3.200,1980/01/25 05:56:18.265
1,9076,158313,-110.000,3.200,,-3.200,1980/01/25 05:56:18.453
1,9087,158485,-110.120,3.100,,-3.100,1980/01/25 05:56:18.625
1,9098,158656,-110.240,3.100,,-3.100,1980/01/25 05:56:18.796
1,9109,158844,-110.360,3.100,,-3.100,1980/01/25 05:56:18.984
1,9120,159016,-110.480,3.000,,-3.000,1980/01/25 05:56:19.156
1,9131,159203,-110.600,3.000,,-3.000,1980/01/25 05:56:19.343
1,9142,159406,-110.730,2.900,,-2.900,1980/01/25 05:56:19.546
1,9153,159578,-110.850,2.900,,-2.900,1980/01/25 05:56:19.718
1,9164,159750,-110.960,2.800,,-2.800,1980/01/25 05:56:19.890
1,9175,160188,-111.250,2.700,,-2.700,1980/01/25 05:56:20.328
1,9186,160391,-111.390,2.600,,-2.600,1980/01/25 05:56:20.531
1,9197,160563,-111.500,2.500,,-2.500,1980/01/25 05:56:20.703
1,9208,160735,-111.620,2.400,,-2.400,1980/01/25 05:56:20.875
1,9219,160938,-111.760,2.300,,-2.300,1980/01/25 05:56:21.078
1,9230,161125,-111.880,2.200,,-2.200,1980/01/25 05:56:21.265
1,9241,161313,-112.000,2.000,,-2.000,1980/01/25 05:56:21.453
1,9252,161516,-112.130,,0.200,0.200,1980/01/25 05:56:21.656
1,9263,161703,-112.270,,0.200,0.200,1980/01/25 05:56:21.843
1,9274,161891,-112.390,,0.300,0.300,1980/01/25 05:56:22.031
1,9283,162047,-112.460,,0.200,0.200,1980/01/25 05:56:22.187